TITLE,DL121 75C Lit
DATA TYPE,
ORIGIN,JASCO
OWNER,
DATE,23/05/01
TIME,15:36:42
SPECTROMETER/DATA SYSTEM,
LOCALE,1033
RESOLUTION,
DELTAX,-0.1
XUNITS,NANOMETERS
YUNITS,CD [mdeg]
Y2UNITS,HT [V]
FIRSTX,  250.0000
LASTX,  190.0000
NPOINTS,     601
FIRSTY,    -0.85692
MAXY,    63.73979
MINY,   -47.24946
XYDATA
250.0000,-0.856918,300.09
249.9000,-0.889838,300.156
249.8000,-0.91261,300.235
249.7000,-0.934409,300.32
249.6000,-0.97308,300.401
249.5000,-0.995416,300.486
249.4000,-1.02262,300.561
249.3000,-0.998285,300.633
249.2000,-1.04945,300.709
249.1000,-1.1515,300.789
249.0000,-1.26891,300.879
248.9000,-1.38676,300.97
248.8000,-1.51715,301.056
248.7000,-1.61108,301.142
248.6000,-1.70734,301.223
248.5000,-1.81807,301.306
248.4000,-1.87055,301.387
248.3000,-1.91982,301.477
248.2000,-1.95544,301.57
248.1000,-2.0023,301.657
248.0000,-2.02313,301.749
247.9000,-2.04947,301.839
247.8000,-2.09595,301.931
247.7000,-2.14154,302.027
247.6000,-2.23168,302.127
247.5000,-2.26746,302.228
247.4000,-2.28936,302.329
247.3000,-2.10589,299.081
247.2000,-1.93389,292.072
247.1000,-1.77881,287.411
247.0000,-1.62322,283.011
246.9000,-1.48553,280.839
246.8000,-1.43791,280.848
246.7000,-1.39746,280.965
246.6000,-1.40238,281.078
246.5000,-1.46662,281.195
246.4000,-1.51361,281.323
246.3000,-1.5811,281.449
246.2000,-1.63263,281.579
246.1000,-1.71918,281.709
246.0000,-1.79086,281.837
245.9000,-1.81388,281.968
245.8000,-1.79757,282.1
245.7000,-1.85795,282.385
245.6000,-2.09501,288.668
245.5000,-2.25904,294.634
245.4000,-2.40054,299.36
245.3000,-2.57395,303.958
245.2000,-2.70117,304.986
245.1000,-2.74751,305.152
245.0000,-2.84518,305.287
244.9000,-2.89191,305.421
244.8000,-2.91428,305.552
244.7000,-2.92293,305.682
244.6000,-2.97772,305.814
244.5000,-3.01913,305.948
244.4000,-3.04545,306.087
244.3000,-3.10247,306.224
244.2000,-3.22646,306.359
244.1000,-3.3627,306.497
244.0000,-3.51305,306.639
243.9000,-3.62712,306.783
243.8000,-3.74571,306.931
243.7000,-3.82386,307.082
243.6000,-3.88315,307.236
243.5000,-3.98319,307.393
243.4000,-4.06403,307.554
243.3000,-4.07451,307.723
243.2000,-4.1221,307.893
243.1000,-4.20147,308.063
243.0000,-4.32166,308.232
242.9000,-4.40317,308.408
242.8000,-4.4826,308.587
242.7000,-4.53788,308.771
242.6000,-4.55708,308.961
242.5000,-4.61024,309.154
242.4000,-4.64259,309.349
242.3000,-4.64501,309.55
242.2000,-4.69827,309.75
242.1000,-4.81179,309.947
242.0000,-4.9424,310.147
241.9000,-5.08222,310.35
241.8000,-5.17944,310.556
241.7000,-5.28763,310.762
241.6000,-5.38615,310.971
241.5000,-5.44868,311.184
241.4000,-5.44614,311.404
241.3000,-5.46884,311.628
241.2000,-5.48651,311.855
241.1000,-5.5214,312.083
241.0000,-5.6515,312.309
240.9000,-5.82295,312.54
240.8000,-5.95005,312.775
240.7000,-6.10791,313.01
240.6000,-6.28076,313.246
240.5000,-6.39795,313.49
240.4000,-6.46514,313.744
240.3000,-6.52016,314.003
240.2000,-6.57236,314.266
240.1000,-6.61689,314.532
240.0000,-6.68785,314.802
239.9000,-6.78363,315.076
239.8000,-6.91858,315.356
239.7000,-7.09263,315.638
239.6000,-7.2269,315.926
239.5000,-7.33541,316.22
239.4000,-7.45685,316.517
239.3000,-7.51406,316.818
239.2000,-7.53329,317.126
239.1000,-7.55134,317.444
239.0000,-7.51159,317.771
238.9000,-7.52151,318.105
238.8000,-7.58593,318.436
238.7000,-7.74828,318.765
238.6000,-7.90202,319.094
238.5000,-8.02823,319.434
238.4000,-8.22194,319.78
238.3000,-8.42834,320.137
238.2000,-8.59418,320.496
238.1000,-8.71641,320.854
238.0000,-8.84156,321.22
237.9000,-8.97534,321.59
237.8000,-9.10097,321.97
237.7000,-9.22283,322.361
237.6000,-9.40889,322.754
237.5000,-9.59298,323.147
237.4000,-9.79542,323.542
237.3000,-10.0567,323.941
237.2000,-10.3038,324.346
237.1000,-10.4948,324.761
237.0000,-10.6053,325.182
236.9000,-10.728,325.609
236.8000,-10.8822,326.046
236.7000,-11.0338,326.491
236.6000,-11.1404,326.946
236.5000,-11.2722,327.409
236.4000,-11.3762,327.885
236.3000,-11.5223,328.37
236.2000,-11.6877,328.861
236.1000,-11.8517,329.351
236.0000,-11.9556,329.848
235.9000,-11.9654,330.358
235.8000,-12.0314,330.877
235.7000,-12.113,331.401
235.6000,-12.1859,331.932
235.5000,-12.2354,332.466
235.4000,-12.3967,333.005
235.3000,-12.599,333.549
235.2000,-12.8005,334.101
235.1000,-12.9469,334.657
235.0000,-13.0969,335.213
234.9000,-13.2816,335.777
234.8000,-13.4958,336.347
234.7000,-13.7104,336.92
234.6000,-13.8399,337.501
234.5000,-13.9924,338.089
234.4000,-14.2048,338.684
234.3000,-14.4365,339.29
234.2000,-14.6812,339.905
234.1000,-14.8791,340.524
234.0000,-15.0667,341.149
233.9000,-15.2322,341.784
233.8000,-15.3942,342.431
233.7000,-15.4035,343.092
233.6000,-15.4013,343.761
233.5000,-15.4535,344.433
233.4000,-15.5524,345.108
233.3000,-15.5942,345.791
233.2000,-15.7078,346.48
233.1000,-15.8175,347.177
233.0000,-15.9777,347.877
232.9000,-16.2066,348.579
232.8000,-16.42,349.28
232.7000,-16.6391,349.99
232.6000,-16.8374,350.702
232.5000,-16.9846,351.415
232.4000,-17.1548,352.137
232.3000,-17.281,352.872
232.2000,-17.4633,353.61
232.1000,-17.7732,354.35
232.0000,-18.1928,355.1
231.9000,-18.5441,355.857
231.8000,-18.8152,356.622
231.7000,-19.031,357.394
231.6000,-19.312,358.168
231.5000,-19.4898,358.951
231.4000,-19.7154,359.737
231.3000,-19.8724,360.53
231.2000,-20.022,361.326
231.1000,-20.168,362.125
231.0000,-20.3069,362.934
230.9000,-20.4837,363.752
230.8000,-20.7019,364.571
230.7000,-20.9146,365.389
230.6000,-21.1564,366.2
230.5000,-21.3175,367.022
230.4000,-21.365,367.848
230.3000,-21.4321,368.638
230.2000,-21.1332,363.216
230.1000,-20.5118,349.361
230.0000,-19.6155,331.556
229.9000,-18.58,312.701
229.8000,-17.6599,308.335
229.7000,-17.0765,308.924
229.6000,-16.8566,309.762
229.5000,-16.7962,310.627
229.4000,-16.8134,311.493
229.3000,-16.9261,312.349
229.2000,-17.0994,313.199
229.1000,-17.2436,314.058
229.0000,-17.4362,314.916
228.9000,-17.5977,315.779
228.8000,-17.884,316.64
228.7000,-18.1614,317.505
228.6000,-18.5033,319.185
228.5000,-19.3568,329.747
228.4000,-20.5269,346.966
228.3000,-21.8719,367.262
228.2000,-23.4521,384.614
228.1000,-24.7958,387.335
228.0000,-25.7862,388.282
227.9000,-26.4473,389.124
227.8000,-26.8403,389.96
227.7000,-27.2248,390.798
227.6000,-27.5717,391.638
227.5000,-27.8303,392.482
227.4000,-28.062,393.325
227.3000,-28.2297,394.171
227.2000,-28.3917,395.017
227.1000,-28.489,395.859
227.0000,-28.5595,396.698
226.9000,-28.7239,397.531
226.8000,-28.8528,398.361
226.7000,-29.0751,399.186
226.6000,-29.2727,400.013
226.5000,-29.4006,400.844
226.4000,-29.6251,401.673
226.3000,-29.8179,402.509
226.2000,-30.0321,403.345
226.1000,-30.268,404.18
226.0000,-30.4093,405.015
225.9000,-30.6597,405.846
225.8000,-30.9438,406.67
225.7000,-31.3109,407.493
225.6000,-31.6675,408.318
225.5000,-32.009,409.143
225.4000,-32.4312,409.968
225.3000,-32.7087,410.799
225.2000,-32.9038,411.628
225.1000,-33.058,412.454
225.0000,-33.2465,413.278
224.9000,-33.4976,414.099
224.8000,-33.6949,414.921
224.7000,-33.687,415.745
224.6000,-33.7453,416.565
224.5000,-33.9668,417.379
224.4000,-34.3381,418.193
224.3000,-34.6907,419.008
224.2000,-34.8755,419.832
224.1000,-35.1227,420.656
224.0000,-35.3546,421.475
223.9000,-35.5375,422.294
223.8000,-35.5312,423.115
223.7000,-35.605,423.926
223.6000,-36.0923,424.727
223.5000,-36.5003,425.535
223.4000,-36.87,426.346
223.3000,-37.1443,427.161
223.2000,-37.4716,427.971
223.1000,-37.812,428.781
223.0000,-38.1565,429.592
222.9000,-38.452,430.405
222.8000,-38.6134,431.219
222.7000,-38.7102,432.033
222.6000,-38.7694,432.851
222.5000,-38.8852,433.669
222.4000,-38.7243,434.495
222.3000,-38.7174,435.313
222.2000,-38.7372,436.132
222.1000,-38.8984,436.952
222.0000,-38.9106,437.784
221.9000,-38.6657,438.624
221.8000,-38.6615,439.451
221.7000,-38.7747,440.273
221.6000,-38.8831,441.097
221.5000,-38.9445,441.93
221.4000,-39.1556,442.764
221.3000,-39.3458,443.603
221.2000,-39.5639,444.441
221.1000,-39.7384,445.278
221.0000,-39.8673,446.115
220.9000,-39.8527,446.96
220.8000,-40.0857,447.793
220.7000,-40.5351,448.625
220.6000,-41.1181,449.46
220.5000,-41.5959,450.301
220.4000,-42.1166,451.144
220.3000,-42.7041,451.989
220.2000,-43.1879,452.84
220.1000,-43.3963,453.708
220.0000,-43.602,454.577
219.9000,-43.9064,455.443
219.8000,-44.2222,456.31
219.7000,-44.4844,457.174
219.6000,-44.765,458.043
219.5000,-44.9994,458.921
219.4000,-45.2435,459.808
219.3000,-45.5336,460.69
219.2000,-45.9168,461.565
219.1000,-46.2817,462.448
219.0000,-46.3825,463.348
218.9000,-46.3718,464.254
218.8000,-46.6411,465.159
218.7000,-46.7199,466.066
218.6000,-46.8217,466.976
218.5000,-47.0506,467.893
218.4000,-47.2495,468.817
218.3000,-47.248,469.755
218.2000,-46.9691,470.7
218.1000,-46.4829,471.653
218.0000,-46.0382,472.617
217.9000,-45.951,473.578
217.8000,-45.9453,474.546
217.7000,-45.7843,475.528
217.6000,-45.9742,476.518
217.5000,-46.2146,477.518
217.4000,-46.4553,478.525
217.3000,-46.6913,479.538
217.2000,-46.803,480.566
217.1000,-46.6629,481.61
217.0000,-46.6004,482.666
216.9000,-46.4275,483.736
216.8000,-46.2297,484.82
216.7000,-46.0466,485.92
216.6000,-45.8855,487.034
216.5000,-46.0855,488.159
216.4000,-46.3653,489.293
216.3000,-46.4219,490.443
216.2000,-46.3168,491.607
216.1000,-46.1655,492.79
216.0000,-46.2302,493.975
215.9000,-46.0333,495.177
215.8000,-45.6882,496.398
215.7000,-45.4412,497.63
215.6000,-45.0302,498.883
215.5000,-44.8512,500.147
215.4000,-44.9425,501.418
215.3000,-44.7952,502.704
215.2000,-44.7221,503.997
215.1000,-44.7549,505.296
215.0000,-44.9616,506.599
214.9000,-45.0915,507.912
214.8000,-44.8608,509.251
214.7000,-44.6149,510.613
214.6000,-44.3235,511.996
214.5000,-44.0292,513.396
214.4000,-43.884,514.807
214.3000,-43.5572,516.252
214.2000,-43.0776,517.726
214.1000,-42.5153,519.219
214.0000,-42.3871,520.708
213.9000,-42.7142,522.198
213.8000,-42.7817,523.714
213.7000,-42.5665,525.261
213.6000,-42.5671,526.829
213.5000,-42.5118,528.427
213.4000,-42.1793,530.054
213.3000,-41.8075,531.699
213.2000,-41.5352,532.838
213.1000,-40.7567,521.705
213.0000,-39.4642,500.054
212.9000,-37.7248,473.539
212.8000,-35.6275,444.596
212.7000,-33.3916,414.36
212.6000,-31.1423,393.951
212.5000,-29.4251,393.301
212.4000,-28.0257,395.053
212.3000,-26.5948,397.053
212.2000,-25.3273,399.096
212.1000,-24.9784,401.141
212.0000,-25.2607,403.193
211.9000,-25.0944,405.279
211.8000,-25.0901,407.385
211.7000,-25.5183,409.507
211.6000,-25.5433,411.676
211.5000,-25.3587,416.946
211.4000,-25.7358,436.472
211.3000,-26.6283,464.15
211.2000,-28.1545,495.677
211.1000,-30.0335,529.204
211.0000,-32.1899,563.79
210.9000,-34.125,579.106
210.8000,-34.8922,582.509
210.7000,-35.2471,584.933
210.6000,-35.8997,587.277
210.5000,-36.1932,589.662
210.4000,-35.6054,592.115
210.3000,-34.669,594.623
210.2000,-34.2493,597.153
210.1000,-33.3367,599.744
210.0000,-32.9913,602.356
209.9000,-32.82,605.003
209.8000,-32.5183,607.696
209.7000,-31.7174,610.432
209.6000,-31.5036,613.205
209.5000,-31.1481,616.03
209.4000,-31.2429,618.9
209.3000,-31.4745,621.808
209.2000,-31.2238,624.766
209.1000,-31.8274,627.738
209.0000,-32.2188,630.774
208.9000,-32.0328,633.889
208.8000,-32.0552,637.051
208.7000,-32.8407,640.243
208.6000,-33.4166,643.493
208.5000,-34.1888,646.796
208.4000,-34.4577,650.167
208.3000,-35.0755,653.592
208.2000,-35.6397,657.065
208.1000,-36.4242,660.576
208.0000,-37.5184,664.137
207.9000,-37.3247,667.798
207.8000,-37.2351,671.501
207.7000,-36.34,675.278
207.6000,-35.9556,679.104
207.5000,-35.532,682.981
207.4000,-34.6888,686.931
207.3000,-34.312,690.904
207.2000,-33.7194,694.928
207.1000,-32.5141,698.997
207.0000,-29.4384,703.165
206.9000,-28.5422,707.306
206.8000,-27.7801,711.498
206.7000,-27.9682,715.711
206.6000,-28.2744,719.95
206.5000,-29.1671,724.211
206.4000,-29.0123,728.589
206.3000,-28.1492,733.026
206.2000,-28.143,737.472
206.1000,-27.6279,741.99
206.0000,-26.5864,746.547
205.9000,-24.1908,751.169
205.8000,-23.4016,755.794
205.7000,-23.4352,760.401
205.6000,-22.5463,765.04
205.5000,-21.4425,769.709
205.4000,-21.3502,774.345
205.3000,-20.9168,778.995
205.2000,-19.1375,783.692
205.1000,-18.6378,788.311
205.0000,-13.8336,793.05
204.9000,-8.72021,797.782
204.8000,-4.4902,802.434
204.7000,-8.61907,806.812
204.6000,-11.4513,811.196
204.5000,-12.9285,815.55
204.4000,-16.1073,819.822
204.3000,-19.2644,824.047
204.2000,-20.9554,828.248
204.1000,-20.8873,832.454
204.0000,-18.2953,836.633
203.9000,-14.2189,840.803
203.8000,-13.213,844.782
203.7000,-14.0775,848.657
203.6000,-17.205,852.351
203.5000,-18.9578,855.997
203.4000,-27.7378,859.335
203.3000,-34.7406,862.644
203.2000,-33.8833,866.087
203.1000,-33.4033,869.436
203.0000,-33.7793,872.589
202.9000,-38.8892,875.47
202.8000,-40.9681,878.393
202.7000,-30.7145,881.504
202.6000,-24.2581,884.447
202.5000,-22.1419,887.105
202.4000,-23.8496,889.495
202.3000,-28.1157,891.733
202.2000,-32.8045,893.849
202.1000,-33.6566,895.929
202.0000,-31.2702,897.987
201.9000,-28.69,899.947
201.8000,-24.6882,901.872
201.7000,-17.0673,903.743
201.6000,-12.7052,905.352
201.5000,-14.9974,906.671
201.4000,-13.922,907.595
201.3000,-4.46266,908.769
201.2000,5.33463,910.133
201.1000,1.63439,910.939
201.0000,-1.73908,911.476
200.9000,-0.500479,911.929
200.8000,3.5331,905.026
200.7000,8.09393,899.848
200.6000,11.9139,882.458
200.5000,13.1467,884.129
200.4000,13.7691,888.054
200.3000,10.5476,891.963
200.2000,12.2971,895.939
200.1000,10.5907,899.789
200.0000,6.09254,903.595
199.9000,-0.957565,907.404
199.8000,-3.49176,911.169
199.7000,-0.255695,915.566
199.6000,-4.9267,919.493
199.5000,-8.58531,923.173
199.4000,-10.5819,927.084
199.3000,-15.982,931.175
199.2000,-19.3439,936.046
199.1000,-25.5126,947.082
199.0000,-27.7416,963.653
198.9000,-26.6067,978.649
198.8000,-26.1205,979.765
198.7000,-26.1876,979.84
198.6000,-33.0702,979.656
198.5000,-40.6962,979.507
198.4000,-34.9433,978.687
198.3000,-28.3055,956.221
198.2000,-23.8953,942.592
198.1000,-23.1763,945.301
198.0000,-23.1465,948.33
197.9000,-16.3423,951.475
197.8000,-1.67946,954.908
197.7000,12.1623,958.3
197.6000,14.8695,961.219
197.5000,17.7512,964.234
197.4000,24.7154,967.425
197.3000,27.424,970.449
197.2000,24.6655,973.342
197.1000,29.0204,976.488
197.0000,37.5589,979.801
196.9000,48.2661,983.258
196.8000,50.4171,986.328
196.7000,50.048,994.961
196.6000,52.5774,1024.71
196.5000,54.8232,1032.41
196.4000,58.6956,1032.62
196.3000,63.7398,1032.76
196.2000,60.9298,1032.68
196.1000,53.2738,1028.57
196.0000,47.2201,995.545
195.9000,46.8998,947.283
195.8000,43.8676,892.2
195.7000,37.1908,833.782
195.6000,36.3573,773.874
195.5000,36.4592,713.162
195.4000,31.6488,674.457
195.3000,27.136,666.922
195.2000,29.4046,666.607
195.1000,31.8737,666.648
195.0000,25.5876,666.451
194.9000,21.2326,666.317
194.8000,18.8327,666.243
194.7000,14.5921,666.115
194.6000,3.1532,665.763
194.5000,-0.633057,665.495
194.4000,-5.39669,672.023
194.3000,-3.78812,711.739
194.2000,-0.058551,762.926
194.1000,2.93687,819.346
194.0000,5.44151,878.324
193.9000,6.49802,938.592
193.8000,9.88264,996.31
193.7000,12.8045,1022.77
193.6000,12.8822,1025.52
193.5000,10.3318,1025.61
193.4000,13.5294,1025.72
193.3000,17.5173,1025.85
193.2000,20.0879,1025.93
193.1000,18.6018,1025.88
193.0000,21.3022,1025.97
192.9000,26.4365,1026.13
192.8000,26.6945,1028.81
192.7000,27.5385,1031.69
192.6000,22.3956,1031.54
192.5000,18.0695,1031.4
192.4000,17.0704,1031.37
192.3000,17.2181,1031.37
192.2000,13.56,1031.26
192.1000,7.3643,1031.07
192.0000,2.06956,1030.9
191.9000,-2.61349,1030.75
191.8000,-5.40999,1030.67
191.7000,-9.18547,1030.55
191.6000,-7.65652,1030.6
191.5000,-8.94562,1030.56
191.4000,-7.35924,1030.61
191.3000,-9.0754,1030.55
191.2000,-10.3214,1030.51
191.1000,-14.6211,1030.38
191.0000,-21.2493,1030.17
190.9000,-23.621,1030.09
190.8000,-27.9545,1029.95
190.7000,-33.1541,1029.79
190.6000,-34.1835,1029.76
190.5000,-29.4406,1029.91
190.4000,-25.1194,1030.04
190.3000,-28.0292,1029.95
190.2000,-29.8232,1029.89
190.1000,-32.241,1029.81
190.0000,-35.7074,1029.71

##### Extended Information
[Comments]
Sample name,DL121 75C Lit
Comment
User,JM
Division
Company,UT Southwestern Medical Center at Dallas

[Detailed Information]
Creation date,5/1/2023 3:36 PM

Data array type,Linear data array * 2
Horizontal axis,Wavelength [nm]
Vertical axis(1),CD [mdeg]
Vertical axis(2),HT [V]
Start,250 nm
End,190 nm
Data interval,0.1 nm
Data points,601     

[Measurement Information]
Instrument name,Jasco CD
Model name,J-815
Serial No.,B064061168

Accessory,CDF-426S
Accessory S/N,A00861183
  Temperature,75.03 C
  Control sonsor,Holder
  Monitor sensor,Holder
  Start Mode,Keep target temperature +/-0.10 deg C while 5 seconds
  Cell length,10 mm

Measurement date,5/1/2023 3:36 PM

Photometric mode,CD, HT
Measure range,250 - 190 nm
Data pitch,0.1 nm
Sensitivity,Standard
D.I.T.,1 sec
Bandwidth,1.00 nm
Start mode,Immediately
Scanning speed,100 nm/min
Baseline correction,None
Shutter control,Manual
CD detector,PMT
PMT voltage,Auto
No. of cycle,3/3

Concentration,0.7 (w/v)%
Solvent,50mM nap04 ph 6.5 100mM NaF

