TITLE,DL121 25C Lit
DATA TYPE,
ORIGIN,JASCO
OWNER,
DATE,23/05/01
TIME,12:31:22
SPECTROMETER/DATA SYSTEM,
LOCALE,1033
RESOLUTION,
DELTAX,-0.1
XUNITS,NANOMETERS
YUNITS,CD [mdeg]
Y2UNITS,HT [V]
FIRSTX,  250.0000
LASTX,  190.0000
NPOINTS,     601
FIRSTY,    -0.67154
MAXY,    57.34173
MINY,   -78.30322
XYDATA
250.0000,-0.671536,285.655
249.9000,-0.663855,285.692
249.8000,-0.70094,285.735
249.7000,-0.710611,285.782
249.6000,-0.683575,285.83
249.5000,-0.624057,285.884
249.4000,-0.553232,285.936
249.3000,-0.513144,285.989
249.2000,-0.463205,286.041
249.1000,-0.402109,286.092
249.0000,-0.366998,286.143
248.9000,-0.342123,286.192
248.8000,-0.315002,286.249
248.7000,-0.28797,286.305
248.6000,-0.275439,286.361
248.5000,-0.270535,286.413
248.4000,-0.290781,286.461
248.3000,-0.303177,286.519
248.2000,-0.277753,286.58
248.1000,-0.232654,286.635
248.0000,-0.201031,286.693
247.9000,-0.235461,286.747
247.8000,-0.273102,286.802
247.7000,-0.35343,286.857
247.6000,-0.370782,286.916
247.5000,-0.39559,286.973
247.4000,-0.442789,287.037
247.3000,-0.496283,287.103
247.2000,-0.572562,287.166
247.1000,-0.663959,287.226
247.0000,-0.756516,287.287
246.9000,-0.827359,287.353
246.8000,-0.885016,287.425
246.7000,-0.930048,287.502
246.6000,-0.984195,287.574
246.5000,-1.06288,287.648
246.4000,-1.16546,287.721
246.3000,-1.20955,287.797
246.2000,-1.23548,287.878
246.1000,-1.24444,287.962
246.0000,-1.24978,288.051
245.9000,-1.28868,288.138
245.8000,-1.34276,288.222
245.7000,-1.35216,288.303
245.6000,-1.35943,288.386
245.5000,-1.33947,288.472
245.4000,-1.33501,288.56
245.3000,-1.32911,288.649
245.2000,-1.34623,288.733
245.1000,-1.35691,288.819
245.0000,-1.39677,288.908
244.9000,-1.44044,289.004
244.8000,-1.46613,289.099
244.7000,-1.49922,289.197
244.6000,-1.56168,289.293
244.5000,-1.6434,289.389
244.4000,-1.72586,289.484
244.3000,-1.81632,289.582
244.2000,-1.92668,289.511
244.1000,-2.01875,287.825
244.0000,-2.08257,286.27
243.9000,-2.14356,284.725
243.8000,-2.16855,283.236
243.7000,-2.22294,283.09
243.6000,-2.26418,283.203
243.5000,-2.27372,283.333
243.4000,-2.31662,283.459
243.3000,-2.33516,283.583
243.2000,-2.33944,283.71
243.1000,-2.3674,283.838
243.0000,-2.38629,283.969
242.9000,-2.41871,284.103
242.8000,-2.47549,284.238
242.7000,-2.54141,284.373
242.6000,-2.60593,284.51
242.5000,-2.64276,285.42
242.4000,-2.70338,287.312
242.3000,-2.79366,289.116
242.2000,-2.94134,290.91
242.1000,-3.11497,292.307
242.0000,-3.28003,292.529
241.9000,-3.48002,292.673
241.8000,-3.65164,292.815
241.7000,-3.78821,292.96
241.6000,-3.95719,293.109
241.5000,-4.14175,293.263
241.4000,-4.27321,293.422
241.3000,-4.40282,293.582
241.2000,-4.51215,293.741
241.1000,-4.577,293.904
241.0000,-4.63929,294.073
240.9000,-4.69134,294.252
240.8000,-4.75831,294.433
240.7000,-4.84928,294.614
240.6000,-4.9148,294.795
240.5000,-4.97204,294.975
240.4000,-5.05638,295.163
240.3000,-5.15077,295.359
240.2000,-5.22874,295.56
240.1000,-5.3332,295.767
240.0000,-5.40422,295.981
239.9000,-5.42922,296.198
239.8000,-5.45125,296.421
239.7000,-5.52246,296.648
239.6000,-5.65407,296.878
239.5000,-5.76136,297.112
239.4000,-5.89604,297.348
239.3000,-6.04486,297.589
239.2000,-6.21292,297.831
239.1000,-6.37962,298.079
239.0000,-6.52753,298.33
238.9000,-6.64812,298.586
238.8000,-6.77191,298.85
238.7000,-6.83363,299.123
238.6000,-6.86578,299.407
238.5000,-6.89895,299.696
238.4000,-6.98154,299.983
238.3000,-7.12189,300.269
238.2000,-7.29132,300.559
238.1000,-7.50562,300.85
238.0000,-7.69213,301.145
237.9000,-7.84416,301.444
237.8000,-7.97383,301.758
237.7000,-8.10102,302.081
237.6000,-8.24266,302.403
237.5000,-8.36327,302.727
237.4000,-8.50798,303.056
237.3000,-8.63511,303.399
237.2000,-8.78948,303.749
237.1000,-8.92601,304.103
237.0000,-9.08045,304.454
236.9000,-9.25365,304.808
236.8000,-9.42193,305.17
236.7000,-9.52011,305.546
236.6000,-9.62078,305.928
236.5000,-9.74795,306.314
236.4000,-9.85802,306.711
236.3000,-10.0274,307.115
236.2000,-10.2245,307.525
236.1000,-10.4269,307.933
236.0000,-10.6207,308.345
235.9000,-10.791,308.77
235.8000,-10.922,309.202
235.7000,-11.0665,309.64
235.6000,-11.2181,310.083
235.5000,-11.4081,310.528
235.4000,-11.6346,310.978
235.3000,-11.8898,311.433
235.2000,-12.1702,311.894
235.1000,-12.419,312.361
235.0000,-12.6803,312.835
234.9000,-12.9397,313.318
234.8000,-13.1932,313.81
234.7000,-13.4078,314.31
234.6000,-13.5453,314.817
234.5000,-13.7101,315.332
234.4000,-13.8948,315.855
234.3000,-14.1244,316.384
234.2000,-14.3832,316.921
234.1000,-14.6248,317.465
234.0000,-14.8119,318.018
233.9000,-15.0367,318.576
233.8000,-15.2337,319.139
233.7000,-15.4183,319.71
233.6000,-15.5312,320.293
233.5000,-15.6461,320.879
233.4000,-15.8325,321.466
233.3000,-15.9513,322.063
233.2000,-16.0737,322.665
233.1000,-16.2333,323.265
233.0000,-16.4163,323.868
232.9000,-16.6466,324.475
232.8000,-16.8971,325.086
232.7000,-17.0237,325.709
232.6000,-17.1138,326.333
232.5000,-17.2304,326.958
232.4000,-17.4019,327.586
232.3000,-17.6184,328.217
232.2000,-17.8289,328.849
232.1000,-18.0244,329.493
232.0000,-18.2695,330.14
231.9000,-18.5875,330.789
231.8000,-18.884,331.446
231.7000,-19.2059,332.102
231.6000,-19.5226,332.758
231.5000,-19.8656,333.415
231.4000,-20.1797,334.083
231.3000,-20.4525,334.757
231.2000,-20.6767,335.43
231.1000,-20.8824,336.098
231.0000,-21.1576,336.762
230.9000,-21.4527,337.431
230.8000,-21.7627,338.103
230.7000,-22.1216,338.773
230.6000,-22.4719,339.439
230.5000,-22.7843,340.102
230.4000,-23.0657,340.753
230.3000,-23.2103,341.405
230.2000,-23.3611,342.058
230.1000,-23.5147,342.71
230.0000,-23.6933,343.361
229.9000,-23.9153,344.008
229.8000,-24.1149,344.653
229.7000,-24.3654,345.297
229.6000,-24.6821,345.939
229.5000,-25.001,346.587
229.4000,-25.3223,347.241
229.3000,-25.6756,347.894
229.2000,-26.0018,348.54
229.1000,-26.2278,349.185
229.0000,-26.4143,349.833
228.9000,-26.6384,350.481
228.8000,-26.9484,351.132
228.7000,-27.2508,351.786
228.6000,-27.6564,352.434
228.5000,-28.04,353.079
228.4000,-28.4356,353.723
228.3000,-28.8017,354.368
228.2000,-29.1981,355.009
228.1000,-29.536,355.65
228.0000,-29.7234,356.285
227.9000,-29.9168,356.914
227.8000,-30.2008,357.531
227.7000,-30.4457,358.15
227.6000,-30.6777,358.769
227.5000,-30.943,359.384
227.4000,-31.2836,359.994
227.3000,-31.5872,360.606
227.2000,-31.9169,361.218
227.1000,-32.0693,360.979
227.0000,-31.5548,353.499
226.9000,-30.5671,348.182
226.8000,-29.3299,343.499
226.7000,-27.9542,339.475
226.6000,-26.9742,339.545
226.5000,-26.4467,340.153
226.4000,-26.2426,340.777
226.3000,-26.3436,341.399
226.2000,-26.5064,342.021
226.1000,-26.6652,342.64
226.0000,-26.8908,343.247
225.9000,-27.0826,343.856
225.8000,-27.2715,344.463
225.7000,-27.439,345.068
225.6000,-27.6908,345.66
225.5000,-27.8699,346.248
225.4000,-28.358,349.808
225.3000,-29.5611,358.539
225.2000,-31.0765,364.626
225.1000,-32.8903,370.472
225.0000,-34.7728,374.305
224.9000,-36.1591,375.028
224.8000,-37.1206,375.579
224.7000,-37.8698,376.124
224.6000,-38.4346,376.677
224.5000,-38.7798,377.238
224.4000,-39.0812,377.802
224.3000,-39.3527,378.368
224.2000,-39.6266,378.931
224.1000,-39.8474,379.5
224.0000,-39.98,380.076
223.9000,-40.0493,380.658
223.8000,-40.2385,381.239
223.7000,-40.3975,381.816
223.6000,-40.655,382.391
223.5000,-40.9668,382.962
223.4000,-41.1137,383.539
223.3000,-41.1747,384.113
223.2000,-41.1126,384.697
223.1000,-41.0444,385.279
223.0000,-40.9981,385.857
222.9000,-41.0071,386.429
222.8000,-41.0953,386.996
222.7000,-41.23,387.561
222.6000,-41.3878,388.128
222.5000,-41.6378,388.693
222.4000,-42.0046,389.255
222.3000,-42.285,389.821
222.2000,-42.4472,390.391
222.1000,-42.5341,390.96
222.0000,-42.7896,391.522
221.9000,-42.8014,392.093
221.8000,-42.8308,392.659
221.7000,-43.0168,393.225
221.6000,-43.2809,393.794
221.5000,-43.5178,394.362
221.4000,-43.7315,394.932
221.3000,-43.9813,395.496
221.2000,-44.1323,396.065
221.1000,-44.3145,396.632
221.0000,-44.5049,397.202
220.9000,-44.4654,397.779
220.8000,-44.4042,398.355
220.7000,-44.4121,398.924
220.6000,-44.4907,399.49
220.5000,-44.6466,400.059
220.4000,-44.9587,400.63
220.3000,-45.0976,401.213
220.2000,-45.4015,401.786
220.1000,-45.6198,402.367
220.0000,-45.5082,402.953
219.9000,-45.5201,403.536
219.8000,-45.5776,404.121
219.7000,-45.6216,404.714
219.6000,-45.7039,405.304
219.5000,-45.9359,405.888
219.4000,-46.0549,406.477
219.3000,-46.1627,407.062
219.2000,-46.3228,407.649
219.1000,-46.3336,408.242
219.0000,-46.3976,408.833
218.9000,-46.6206,409.419
218.8000,-46.6425,410.017
218.7000,-46.5545,410.619
218.6000,-46.6181,411.22
218.5000,-46.4485,411.833
218.4000,-46.4415,412.435
218.3000,-46.4564,413.037
218.2000,-46.4826,413.634
218.1000,-46.4274,414.229
218.0000,-46.3571,414.829
217.9000,-46.2897,415.436
217.8000,-46.1982,416.051
217.7000,-46.0864,416.665
217.6000,-45.9803,417.287
217.5000,-46.026,417.905
217.4000,-45.9564,418.532
217.3000,-45.8983,419.166
217.2000,-45.8176,419.807
217.1000,-45.6531,420.449
217.0000,-45.5235,421.094
216.9000,-45.2236,421.748
216.8000,-45.144,422.401
216.7000,-44.9551,423.07
216.6000,-44.8105,423.748
216.5000,-44.7034,424.432
216.4000,-44.777,425.118
216.3000,-44.8114,425.816
216.2000,-44.8675,426.519
216.1000,-44.8376,427.233
216.0000,-44.869,427.95
215.9000,-44.8344,428.676
215.8000,-44.7049,429.414
215.7000,-44.6993,430.159
215.6000,-44.536,430.915
215.5000,-44.5346,431.669
215.4000,-44.6907,432.425
215.3000,-44.7787,433.19
215.2000,-45.0676,433.962
215.1000,-45.2116,434.752
215.0000,-45.2821,435.557
214.9000,-45.0472,436.38
214.8000,-44.8268,437.209
214.7000,-44.6355,438.044
214.6000,-44.7006,438.878
214.5000,-44.6744,439.727
214.4000,-44.614,440.589
214.3000,-44.4066,441.475
214.2000,-44.2359,442.372
214.1000,-44.0363,443.282
214.0000,-43.906,444.201
213.9000,-43.7564,445.133
213.8000,-43.6555,446.085
213.7000,-43.6479,447.058
213.6000,-43.556,448.048
213.5000,-43.5688,449.047
213.4000,-43.502,450.056
213.3000,-43.4738,451.069
213.2000,-43.5722,452.093
213.1000,-43.6272,453.141
213.0000,-43.5266,454.218
212.9000,-43.3764,455.314
212.8000,-43.3966,456.417
212.7000,-43.415,457.53
212.6000,-43.6027,458.657
212.5000,-43.8507,459.804
212.4000,-43.805,460.977
212.3000,-43.8315,462.162
212.2000,-44.0043,463.353
212.1000,-43.9275,464.564
212.0000,-43.5776,465.799
211.9000,-43.2197,467.059
211.8000,-42.8665,468.342
211.7000,-42.6172,469.643
211.6000,-42.5408,470.959
211.5000,-42.4602,472.295
211.4000,-42.4109,473.648
211.3000,-42.3059,475.024
211.2000,-42.1365,476.421
211.1000,-41.9995,477.84
211.0000,-41.8759,479.278
210.9000,-41.6972,480.728
210.8000,-41.6807,482.187
210.7000,-42.0183,483.661
210.6000,-41.8951,485.178
210.5000,-41.4764,486.737
210.4000,-41.3778,488.308
210.3000,-41.4337,489.898
210.2000,-41.4288,491.513
210.1000,-41.2919,493.16
210.0000,-41.0937,492.075
209.9000,-40.0211,478.078
209.8000,-38.4599,456.382
209.7000,-36.4218,431.07
209.6000,-34.1127,403.919
209.5000,-31.7813,394.633
209.4000,-29.9722,395.708
209.3000,-29.0188,397.599
209.2000,-28.275,399.601
209.1000,-27.5975,401.649
209.0000,-26.7003,403.737
208.9000,-26.5266,405.843
208.8000,-26.3969,407.987
208.7000,-26.3761,410.17
208.6000,-26.3186,412.389
208.5000,-26.2895,414.644
208.4000,-26.3939,416.93
208.3000,-26.9891,425.983
208.2000,-28.4287,447.311
208.1000,-30.2167,474.669
208.0000,-32.1535,504.963
207.9000,-34.2693,533.71
207.8000,-36.6216,541.034
207.7000,-38.092,543.905
207.6000,-38.6233,546.484
207.5000,-38.7424,549.087
207.4000,-38.9607,551.73
207.3000,-39.4738,554.413
207.2000,-40.0535,557.124
207.1000,-40.4383,559.879
207.0000,-40.6523,562.682
206.9000,-40.6271,565.544
206.8000,-40.0191,568.47
206.7000,-39.4219,571.444
206.6000,-38.6835,574.473
206.5000,-38.0247,577.543
206.4000,-37.668,580.648
206.3000,-37.295,583.806
206.2000,-36.2011,587.04
206.1000,-34.5823,590.349
206.0000,-32.5079,593.723
205.9000,-30.6041,597.139
205.8000,-28.6081,600.595
205.7000,-26.8279,604.093
205.6000,-24.425,607.677
205.5000,-23.0593,611.292
205.4000,-21.8571,614.944
205.3000,-20.9437,618.635
205.2000,-21.5432,622.335
205.1000,-21.8536,626.09
205.0000,-21.3938,629.915
204.9000,-20.9979,633.788
204.8000,-20.2656,637.72
204.7000,-18.4454,641.74
204.6000,-17.4062,645.787
204.5000,-16.4058,649.885
204.4000,-15.4479,654.04
204.3000,-14.669,658.232
204.2000,-14.6886,662.454
204.1000,-15.2253,666.706
204.0000,-16.1282,670.981
203.9000,-17.2203,675.281
203.8000,-16.5102,679.674
203.7000,-15.1394,684.132
203.6000,-12.9509,688.645
203.5000,-10.269,693.196
203.4000,-9.02299,697.734
203.3000,-8.08931,702.293
203.2000,-7.67727,706.861
203.1000,-7.16129,711.46
203.0000,-6.19207,716.09
202.9000,-4.63732,720.751
202.8000,-3.41852,725.404
202.7000,-3.10038,730.021
202.6000,-3.47217,734.625
202.5000,-3.43201,739.245
202.4000,-2.8942,743.872
202.3000,-1.72568,748.491
202.2000,-1.15258,753.053
202.1000,-4.88832,757.453
202.0000,-11.4555,761.761
201.9000,-16.387,766.09
201.8000,-15.0048,770.585
201.7000,-13.7372,775.043
201.6000,-15.1287,779.355
201.5000,-14.9611,783.641
201.4000,-12.7826,787.911
201.3000,-10.6451,792.095
201.2000,-8.64064,796.21
201.1000,-8.10374,800.215
201.0000,-8.65491,804.065
200.9000,-6.85369,807.905
200.8000,-4.86676,811.653
200.7000,-3.84684,815.266
200.6000,-5.81591,818.688
200.5000,-6.60683,822.05
200.4000,-4.55467,825.345
200.3000,-2.38711,828.548
200.2000,-7.49346,831.363
200.1000,-13.5749,833.997
200.0000,-18.3961,836.503
199.9000,-22.2578,838.914
199.8000,-25.4144,841.25
199.7000,-31.4392,843.343
199.6000,-35.2352,845.31
199.5000,-41.6049,847.063
199.4000,-48.581,848.561
199.3000,-57.7598,849.828
199.2000,-66.878,850.975
199.1000,-71.1739,852.043
199.0000,-74.3052,852.987
198.9000,-76.0975,853.809
198.8000,-78.3032,854.554
198.7000,-75.7704,855.221
198.6000,-68.9014,855.941
198.5000,-61.048,856.573
198.4000,-53.4991,857.161
198.3000,-47.5061,857.531
198.2000,-49.2966,857.372
198.1000,-52.4622,857.237
198.0000,-52.2148,856.713
197.9000,-50.8985,856.475
197.8000,-44.4716,856.264
197.7000,-35.5148,856.267
197.6000,-31.2641,855.88
197.5000,-23.4304,855.714
197.4000,-15.3081,854.858
197.3000,-6.48481,854.166
197.2000,4.12346,853.865
197.1000,6.87576,852.236
197.0000,9.79536,850.328
196.9000,8.94954,848.091
196.8000,10.2869,845.628
196.7000,8.00149,843.858
196.6000,8.58107,837.608
196.5000,15.6849,809.118
196.4000,18.3432,798.456
196.3000,15.1686,805.529
196.2000,12.5193,813.451
196.1000,5.51077,821.524
196.0000,3.82948,829.587
195.9000,0.652261,837.881
195.8000,-5.4059,846.128
195.7000,-11.3862,854.857
195.6000,-18.7905,862.79
195.5000,-20.575,871.378
195.4000,-17.8617,881.032
195.3000,-14.934,890.676
195.2000,-9.16651,901.111
195.1000,-4.73762,911.377
195.0000,-4.21783,918.826
194.9000,-1.33963,941.685
194.8000,1.24753,974.246
194.7000,3.6511,958.747
194.6000,11.3147,953.43
194.5000,10.0884,955.539
194.4000,10.7458,958.078
194.3000,13.9789,960.592
194.2000,19.8409,963.247
194.1000,22.9951,965.834
194.0000,26.7482,968.558
193.9000,27.9504,971.417
193.8000,21.684,973.85
193.7000,12.1598,976.209
193.6000,-0.205551,978.401
193.5000,-10.7952,980.764
193.4000,-18.0057,983.147
193.3000,-16.6872,985.907
193.2000,-15.8693,988.805
193.1000,-18.3146,1001.62
193.0000,-16.392,1027.04
192.9000,-13.0285,1018.66
192.8000,-7.29614,980.439
192.7000,-3.3317,930.206
192.6000,-2.84686,874.239
192.5000,-2.57271,815.524
192.4000,-5.12338,755.3
192.3000,-7.17501,704.075
192.2000,-5.42277,686.697
192.1000,-0.985995,682.906
192.0000,0.927444,680.337
191.9000,7.9326,678.095
191.8000,16.9026,675.719
191.7000,20.4704,672.568
191.6000,21.7662,668.696
191.5000,18.6795,663.795
191.4000,14.7818,658.612
191.3000,9.51908,653.373
191.2000,8.3855,670.068
191.1000,11.7653,707.785
191.0000,13.2493,754.587
190.9000,16.0314,805.746
190.8000,22.8574,858.947
190.7000,27.9326,913.039
190.6000,37.2755,947.033
190.5000,43.7058,950.653
190.4000,48.1068,947.344
190.3000,57.3417,943.183
190.2000,54.3215,938.851
190.1000,45.097,934.449
190.0000,32.3643,930.732

##### Extended Information
[Comments]
Sample name,DL121 25C Lit
Comment
User,JM
Division
Company,UT Southwestern Medical Center at Dallas

[Detailed Information]
Creation date,5/1/2023 12:31 PM

Data array type,Linear data array * 2
Horizontal axis,Wavelength [nm]
Vertical axis(1),CD [mdeg]
Vertical axis(2),HT [V]
Start,250 nm
End,190 nm
Data interval,0.1 nm
Data points,601     

[Measurement Information]
Instrument name,Jasco CD
Model name,J-815
Serial No.,B064061168

Accessory,CDF-426S
Accessory S/N,A00861183
  Temperature,25.00 C
  Control sonsor,Holder
  Monitor sensor,Holder
  Start Mode,Keep target temperature +/-0.10 deg C while 5 seconds
  Cell length,10 mm

Measurement date,5/1/2023 12:31 PM

Photometric mode,CD, HT
Measure range,250 - 190 nm
Data pitch,0.1 nm
Sensitivity,Standard
D.I.T.,1 sec
Bandwidth,1.00 nm
Start mode,Immediately
Scanning speed,100 nm/min
Baseline correction,None
Shutter control,Manual
CD detector,PMT
PMT voltage,Auto
No. of cycle,3/3

Concentration,0.7 (w/v)%
Solvent,50mM nap04 ph 6.5 100mM NaF

