TITLE,DL121 5C Dark 2
DATA TYPE,
ORIGIN,JASCO
OWNER,
DATE,23/05/01
TIME,11:31:04
SPECTROMETER/DATA SYSTEM,
LOCALE,1033
RESOLUTION,
DELTAX,-0.1
XUNITS,NANOMETERS
YUNITS,CD [mdeg]
Y2UNITS,HT [V]
FIRSTX,  250.0000
LASTX,  190.0000
NPOINTS,     601
FIRSTY,    -0.86718
MAXY,    57.94017
MINY,   -56.82476
XYDATA
250.0000,-0.867175,285.399
249.9000,-0.840265,285.443
249.8000,-0.818838,285.483
249.7000,-0.845255,285.535
249.6000,-0.822675,285.573
249.5000,-0.749121,285.618
249.4000,-0.680832,285.66
249.3000,-0.606763,285.702
249.2000,-0.539871,285.75
249.1000,-0.514905,285.798
249.0000,-0.468262,285.844
248.9000,-0.441998,285.891
248.8000,-0.421365,285.955
248.7000,-0.439911,286.007
248.6000,-0.49606,286.063
248.5000,-0.555277,286.111
248.4000,-0.632413,286.157
248.3000,-0.672549,286.206
248.2000,-0.748813,286.248
248.1000,-0.818286,286.295
248.0000,-0.869675,286.345
247.9000,-0.923624,286.4
247.8000,-0.986508,286.448
247.7000,-1.01845,286.501
247.6000,-1.03606,286.557
247.5000,-1.06714,286.616
247.4000,-1.07604,286.682
247.3000,-1.12084,286.754
247.2000,-1.12555,286.815
247.1000,-1.14126,286.867
247.0000,-1.17946,286.917
246.9000,-1.18666,286.973
246.8000,-1.18831,287.034
246.7000,-1.18801,287.1
246.6000,-1.22153,287.168
246.5000,-1.221,287.242
246.4000,-1.1985,287.315
246.3000,-1.14486,287.389
246.2000,-1.07637,287.463
246.1000,-1.03589,287.546
246.0000,-1.02943,287.629
245.9000,-1.02123,287.705
245.8000,-1.01432,287.773
245.7000,-1.03099,287.835
245.6000,-1.06911,287.898
245.5000,-1.07875,287.966
245.4000,-1.04893,288.048
245.3000,-1.02079,288.13
245.2000,-1.05348,288.204
245.1000,-1.10248,288.28
245.0000,-1.12795,288.356
244.9000,-1.12631,288.441
244.8000,-1.12375,288.532
244.7000,-1.16791,288.619
244.6000,-1.24477,288.695
244.5000,-1.36688,288.774
244.4000,-1.46126,288.853
244.3000,-1.56744,288.933
244.2000,-1.66672,289.022
244.1000,-1.75465,289.121
244.0000,-1.81841,289.217
243.9000,-1.90694,289.314
243.8000,-2.03428,289.411
243.7000,-2.15847,289.511
243.6000,-2.24422,289.618
243.5000,-2.26287,289.727
243.4000,-2.27664,289.836
243.3000,-2.32692,289.946
243.2000,-2.43958,290.049
243.1000,-2.54363,290.155
243.0000,-2.63342,290.264
242.9000,-2.71691,290.384
242.8000,-2.78719,290.51
242.7000,-2.85921,290.633
242.6000,-2.92549,290.756
242.5000,-3.02195,290.878
242.4000,-3.08525,291.004
242.3000,-3.13268,291.136
242.2000,-3.16509,291.269
242.1000,-3.21118,291.401
242.0000,-3.26365,291.536
241.9000,-3.32405,291.674
241.8000,-3.38847,291.819
241.7000,-3.48675,291.959
241.6000,-3.5529,292.102
241.5000,-3.56122,292.248
241.4000,-3.61833,292.396
241.3000,-3.67336,292.551
241.2000,-3.7192,292.708
241.1000,-3.77553,292.869
241.0000,-3.81659,293.031
240.9000,-3.86975,293.196
240.8000,-3.91306,293.368
240.7000,-3.99799,293.543
240.6000,-4.0976,293.721
240.5000,-4.17684,293.906
240.4000,-4.22822,294.091
240.3000,-4.32145,294.275
240.2000,-4.45987,294.466
240.1000,-4.58167,294.666
240.0000,-4.702,294.878
239.9000,-4.86056,295.088
239.8000,-5.04035,295.296
239.7000,-5.15633,295.512
239.6000,-5.23819,295.736
239.5000,-5.33118,295.971
239.4000,-5.37432,296.207
239.3000,-5.41216,296.455
239.2000,-5.45416,296.698
239.1000,-5.48797,296.946
239.0000,-5.56284,297.197
238.9000,-5.66487,297.453
238.8000,-5.77157,297.712
238.7000,-5.87127,297.977
238.6000,-5.96088,298.244
238.5000,-6.06924,298.514
238.4000,-6.1813,298.783
238.3000,-6.31121,299.058
238.2000,-6.40111,299.344
238.1000,-6.49165,299.642
238.0000,-6.58513,299.938
237.9000,-6.68485,300.235
237.8000,-6.80423,300.531
237.7000,-6.96941,300.838
237.6000,-7.12766,301.152
237.5000,-7.3331,301.46
237.4000,-7.51898,301.779
237.3000,-7.69105,302.106
237.2000,-7.87957,302.439
237.1000,-8.07616,302.78
237.0000,-8.1966,303.13
236.9000,-8.31989,303.489
236.8000,-8.40558,303.859
236.7000,-8.53439,304.234
236.6000,-8.7057,304.613
236.5000,-8.86495,304.993
236.4000,-9.03865,305.38
236.3000,-9.24111,305.775
236.2000,-9.44188,306.182
236.1000,-9.65038,306.589
236.0000,-9.92249,307.006
235.9000,-10.2042,307.428
235.8000,-10.4747,307.861
235.7000,-10.7749,308.296
235.6000,-11.0259,308.736
235.5000,-11.2336,309.183
235.4000,-11.4946,309.636
235.3000,-11.8012,310.089
235.2000,-12.0821,310.545
235.1000,-12.3513,311.011
235.0000,-12.5539,311.486
234.9000,-12.7069,311.967
234.8000,-12.9003,312.459
234.7000,-13.0824,312.953
234.6000,-13.2893,313.456
234.5000,-13.4959,313.97
234.4000,-13.6444,314.49
234.3000,-13.7595,315.014
234.2000,-13.8356,315.545
234.1000,-13.9206,316.09
234.0000,-13.9985,316.644
233.9000,-14.0911,317.208
233.8000,-14.238,317.778
233.7000,-14.382,318.353
233.6000,-14.5562,318.938
233.5000,-14.7874,319.52
233.4000,-15.0297,320.105
233.3000,-15.2922,320.701
233.2000,-15.5606,321.305
233.1000,-15.847,321.916
233.0000,-16.1377,322.532
232.9000,-16.3837,323.15
232.8000,-16.6627,323.769
232.7000,-16.9771,324.398
232.6000,-17.3277,325.034
232.5000,-17.6509,325.679
232.4000,-17.9503,326.326
232.3000,-18.2445,326.972
232.2000,-18.5925,327.615
232.1000,-18.8644,328.265
232.0000,-19.1637,328.918
231.9000,-19.4363,329.586
231.8000,-19.6315,330.259
231.7000,-19.8376,330.933
231.6000,-20.0474,331.606
231.5000,-20.2977,332.271
231.4000,-20.5709,332.942
231.3000,-20.8355,333.619
231.2000,-21.1423,334.296
231.1000,-21.423,334.975
231.0000,-21.6703,335.652
230.9000,-21.8962,336.327
230.8000,-22.1688,336.991
230.7000,-22.4514,337.658
230.6000,-22.7467,338.324
230.5000,-23.0171,338.992
230.4000,-23.2604,339.658
230.3000,-23.4833,340.32
230.2000,-23.7025,340.979
230.1000,-23.9561,341.63
230.0000,-24.2149,342.286
229.9000,-24.4551,342.938
229.8000,-24.7023,343.59
229.7000,-24.9654,344.245
229.6000,-25.3046,344.894
229.5000,-25.6237,345.547
229.4000,-25.9576,346.195
229.3000,-26.3572,346.839
229.2000,-26.8013,347.482
229.1000,-27.3114,348.126
229.0000,-27.73,348.774
228.9000,-28.1025,349.427
228.8000,-28.4719,350.082
228.7000,-28.8587,350.731
228.6000,-29.2006,351.377
228.5000,-29.6154,352.024
228.4000,-30.0517,352.671
228.3000,-30.5535,353.318
228.2000,-31.0122,353.966
228.1000,-31.4132,354.607
228.0000,-31.828,355.232
227.9000,-32.1992,355.852
227.8000,-32.5712,356.47
227.7000,-32.9673,357.09
227.6000,-33.2301,357.71
227.5000,-33.5161,358.319
227.4000,-33.8083,358.922
227.3000,-34.1915,359.514
227.2000,-34.5676,360.105
227.1000,-34.9759,360.693
227.0000,-35.4496,361.277
226.9000,-35.9343,361.855
226.8000,-36.3944,362.431
226.7000,-36.8829,363
226.6000,-37.3046,363.571
226.5000,-37.7289,364.141
226.4000,-38.1383,364.718
226.3000,-38.514,365.292
226.2000,-38.7823,365.867
226.1000,-39.1595,366.434
226.0000,-39.5899,366.993
225.9000,-40.0572,367.553
225.8000,-40.468,368.117
225.7000,-40.8121,368.685
225.6000,-41.2228,369.256
225.5000,-41.5656,369.829
225.4000,-41.8858,370.395
225.3000,-42.1643,370.959
225.2000,-42.4788,371.526
225.1000,-42.7739,372.097
225.0000,-42.9931,372.674
224.9000,-43.2884,373.24
224.8000,-43.6353,373.79
224.7000,-43.833,374.343
224.6000,-44.0779,374.909
224.5000,-44.4212,375.474
224.4000,-44.7614,376.044
224.3000,-45.0285,376.618
224.2000,-45.3246,377.19
224.1000,-45.592,377.763
224.0000,-45.8783,378.338
223.9000,-46.0391,378.916
223.8000,-46.2415,379.493
223.7000,-46.611,380.069
223.6000,-47.0136,380.643
223.5000,-47.3509,381.211
223.4000,-47.7038,381.775
223.3000,-48.0946,382.341
223.2000,-48.3075,382.915
223.1000,-48.518,383.5
223.0000,-48.7924,384.082
222.9000,-49.0906,384.655
222.8000,-49.3124,385.23
222.7000,-49.5164,385.807
222.6000,-49.7216,386.387
222.5000,-49.952,386.968
222.4000,-50.1332,387.545
222.3000,-50.3098,388.118
222.2000,-50.6112,388.68
222.1000,-50.8547,389.247
222.0000,-50.9876,389.828
221.9000,-51.1092,390.413
221.8000,-51.1772,390.997
221.7000,-51.2208,391.575
221.6000,-51.1701,392.151
221.5000,-51.1148,392.736
221.4000,-51.0938,393.32
221.3000,-51.0967,393.904
221.2000,-51.0718,394.488
221.1000,-51.1128,395.063
221.0000,-51.1033,395.636
220.9000,-51.0814,396.213
220.8000,-51.0949,396.789
220.7000,-51.0875,397.372
220.6000,-51.0222,397.954
220.5000,-50.9612,398.532
220.4000,-51.0142,399.102
220.3000,-51.0327,399.676
220.2000,-51.0573,400.251
220.1000,-51.1495,400.829
220.0000,-51.2268,401.408
219.9000,-51.4332,401.982
219.8000,-51.7006,402.553
219.7000,-51.8368,403.125
219.6000,-51.9186,403.699
219.5000,-52.0447,404.27
219.4000,-52.2046,404.845
219.3000,-52.3702,405.419
219.2000,-52.535,405.994
219.1000,-52.5638,406.574
219.0000,-52.7,407.156
218.9000,-52.9068,407.738
218.8000,-53.0142,408.333
218.7000,-53.0536,408.924
218.6000,-53.1463,409.507
218.5000,-53.2243,410.097
218.4000,-53.3982,410.689
218.3000,-53.5867,411.285
218.2000,-53.7841,411.879
218.1000,-54.0573,412.468
218.0000,-54.2556,413.067
217.9000,-54.3941,413.674
217.8000,-54.5103,414.288
217.7000,-54.5825,414.899
217.6000,-54.4905,415.519
217.5000,-54.3682,416.142
217.4000,-54.5905,416.756
217.3000,-54.6916,417.376
217.2000,-54.8158,417.999
217.1000,-54.8339,418.624
217.0000,-54.7415,419.261
216.9000,-54.6462,419.903
216.8000,-54.4292,420.554
216.7000,-54.0749,421.223
216.6000,-53.6931,421.902
216.5000,-53.2967,422.592
216.4000,-52.9334,423.285
216.3000,-52.8132,423.972
216.2000,-52.8003,424.657
216.1000,-52.7079,425.357
216.0000,-52.6782,426.058
215.9000,-52.5854,426.768
215.8000,-52.2843,427.489
215.7000,-51.7944,428.231
215.6000,-51.4476,428.975
215.5000,-51.0027,429.728
215.4000,-50.7903,430.478
215.3000,-50.6635,431.235
215.2000,-50.4342,432.004
215.1000,-50.2263,432.776
215.0000,-50.071,433.553
214.9000,-49.9701,434.331
214.8000,-49.8997,435.119
214.7000,-49.8384,435.92
214.6000,-49.6708,436.735
214.5000,-49.4598,437.565
214.4000,-49.2462,438.414
214.3000,-49.063,439.277
214.2000,-49.1268,440.146
214.1000,-49.2921,441.02
214.0000,-49.3771,441.903
213.9000,-49.5697,442.801
213.8000,-49.9104,443.716
213.7000,-50.0654,444.661
213.6000,-50.3026,445.615
213.5000,-50.5972,446.581
213.4000,-50.7233,447.565
213.3000,-50.814,448.565
213.2000,-50.7199,449.592
213.1000,-50.661,450.643
213.0000,-50.6885,451.706
212.9000,-50.6093,452.792
212.8000,-50.4674,453.885
212.7000,-50.272,454.991
212.6000,-49.8667,456.121
212.5000,-49.5282,457.27
212.4000,-49.4145,458.431
212.3000,-49.137,459.612
212.2000,-49.0363,460.797
212.1000,-48.9736,461.993
212.0000,-48.9064,463.204
211.9000,-48.8984,464.437
211.8000,-49.0871,465.683
211.7000,-49.2586,466.945
211.6000,-49.4972,468.215
211.5000,-49.7826,469.498
211.4000,-49.6933,470.813
211.3000,-49.7159,472.139
211.2000,-49.7825,473.482
211.1000,-50.0417,474.842
211.0000,-50.3262,476.225
210.9000,-50.8577,477.616
210.8000,-51.0243,479.036
210.7000,-50.9582,480.488
210.6000,-50.8413,481.968
210.5000,-50.4581,483.489
210.4000,-50.2355,485.03
210.3000,-50.0561,486.588
210.2000,-49.826,488.165
210.1000,-49.6488,489.769
210.0000,-49.4705,491.414
209.9000,-49.0218,493.106
209.8000,-48.8183,494.816
209.7000,-48.6962,496.547
209.6000,-48.601,498.315
209.5000,-48.4676,500.12
209.4000,-48.497,501.955
209.3000,-48.732,503.817
209.2000,-48.6249,505.724
209.1000,-48.499,507.669
209.0000,-48.4138,509.648
208.9000,-48.5796,511.654
208.8000,-48.5635,513.698
208.7000,-48.4157,515.784
208.6000,-47.9582,517.914
208.5000,-47.4198,520.088
208.4000,-47.0577,522.298
208.3000,-47.087,524.527
208.2000,-47.1439,526.8
208.1000,-46.9933,529.126
208.0000,-46.7808,531.496
207.9000,-46.387,533.905
207.8000,-45.8824,536.355
207.7000,-45.5187,538.841
207.6000,-45.0668,541.373
207.5000,-44.8055,543.938
207.4000,-44.6162,546.544
207.3000,-44.1458,549.202
207.2000,-43.8232,551.903
207.1000,-43.6125,554.64
207.0000,-43.4378,557.428
206.9000,-43.4761,560.261
206.8000,-43.7401,563.129
206.7000,-43.6352,566.049
206.6000,-42.7736,569.024
206.5000,-41.931,572.029
206.4000,-41.2794,575.072
206.3000,-40.5556,578.169
206.2000,-40.0244,581.317
206.1000,-39.7761,584.502
206.0000,-39.3641,587.737
205.9000,-39.262,591.015
205.8000,-38.8258,594.359
205.7000,-38.9398,597.723
205.6000,-39.4923,601.124
205.5000,-39.7852,604.594
205.4000,-39.3683,608.141
205.3000,-39.5973,611.714
205.2000,-39.0532,615.362
205.1000,-37.7104,619.086
205.0000,-36.5971,622.853
204.9000,-36.1074,626.662
204.8000,-35.9929,630.511
204.7000,-35.4191,634.425
204.6000,-34.873,638.385
204.5000,-34.7662,642.378
204.4000,-33.9585,646.451
204.3000,-31.8234,650.619
204.2000,-29.7667,654.829
204.1000,-28.1119,659.073
204.0000,-26.9623,663.359
203.9000,-25.787,667.672
203.8000,-25.5603,671.986
203.7000,-24.5849,676.368
203.6000,-22.8628,680.804
203.5000,-21.5336,685.265
203.4000,-20.7294,689.747
203.3000,-19.5805,694.282
203.2000,-18.6683,698.838
203.1000,-17.1595,703.444
203.0000,-15.281,708.074
202.9000,-13.4126,712.726
202.8000,-11.7732,717.374
202.7000,-10.7384,722.017
202.6000,-9.57658,726.672
202.5000,-10.498,731.262
202.4000,-12.0089,735.833
202.3000,-11.4105,740.461
202.2000,-9.88998,745.119
202.1000,-8.02298,749.742
202.0000,-5.73016,754.363
201.9000,-5.40387,758.916
201.8000,-4.97325,763.432
201.7000,-1.25854,768.004
201.6000,1.74104,772.516
201.5000,1.10519,776.862
201.4000,-2.84056,781.069
201.3000,-8.09012,785.184
201.2000,-11.0693,789.333
201.1000,-14.9171,793.373
201.0000,-17.698,797.4
200.9000,-22.2797,801.297
200.8000,-26.4291,805.151
200.7000,-29.5921,808.953
200.6000,-31.8162,812.719
200.5000,-30.8711,816.525
200.4000,-26.6967,820.367
200.3000,-24.3868,824.059
200.2000,-19.6706,827.787
200.1000,-14.7987,831.427
200.0000,-14.0185,834.858
199.9000,-12.5573,838.235
199.8000,-5.68793,841.726
199.7000,1.02278,845.115
199.6000,4.57407,848.34
199.5000,12.9663,851.612
199.4000,21.3142,854.829
199.3000,30.5893,856.115
199.2000,39.8672,836.552
199.1000,49.7168,825.807
199.0000,52.9694,830.074
198.9000,55.98,835.619
198.8000,57.9402,841.121
198.7000,53.5833,846.405
198.6000,55.7997,851.809
198.5000,49.4142,856.881
198.4000,40.8408,861.864
198.3000,40.4209,866.987
198.2000,38.3817,871.992
198.1000,29.7187,876.722
198.0000,24.4225,881.532
197.9000,18.4844,886.142
197.8000,18.3471,890.899
197.7000,17.7625,895.603
197.6000,12.3478,906.957
197.5000,6.55075,937.333
197.4000,2.18233,947.089
197.3000,8.1944,949.278
197.2000,9.35201,950.776
197.1000,11.4076,952.185
197.0000,10.346,953.339
196.9000,5.2515,954.36
196.8000,7.52052,955.447
196.7000,0.762543,956.222
196.6000,-2.95045,957.005
196.5000,1.43291,957.966
196.4000,12.3244,958.998
196.3000,24.7149,960.019
196.2000,32.7465,960.929
196.1000,32.7564,961.497
196.0000,33.3697,962.008
195.9000,30.3274,962.352
195.8000,31.7737,962.783
195.7000,35.9688,963.172
195.6000,25.3858,963.012
195.5000,15.3319,962.907
195.4000,5.86651,962.727
195.3000,4.11219,962.745
195.2000,6.02342,962.687
195.1000,9.49256,962.812
195.0000,17.6405,963.089
194.9000,15.1941,963.118
194.8000,5.94265,962.874
194.7000,1.42877,962.749
194.6000,-8.25012,962.383
194.5000,-12.4959,949.821
194.4000,-17.6299,934.235
194.3000,-13.5315,936.226
194.2000,-9.30348,939.888
194.1000,-6.28347,943.901
194.0000,-4.98581,947.923
193.9000,4.37868,952.317
193.8000,13.4752,956.581
193.7000,18.9318,960.888
193.6000,15.9832,964.936
193.5000,4.53878,968.702
193.4000,-1.55966,972.629
193.3000,-7.00486,976.496
193.2000,-15.4962,980.171
193.1000,-16.7303,984.13
193.0000,-15.8605,988.215
192.9000,-12.5787,993.214
192.8000,-14.8511,1017.53
192.7000,-20.3006,1027.73
192.6000,-22.7469,1028.44
192.5000,-23.481,1028.36
192.4000,-26.4027,1027.84
192.3000,-28.2342,1027.2
192.2000,-36.2512,1026.17
192.1000,-47.6792,1024.95
192.0000,-56.8248,1023.73
191.9000,-56.2169,1022.72
191.8000,-47.6411,1021.89
191.7000,-43.6583,1020.79
191.6000,-32.3241,1019.86
191.5000,-20.0955,1018.81
191.4000,-18.712,1017.34
191.3000,-16.3522,1015.88
191.2000,-21.303,1014.05
191.1000,-21.1159,1012.35
191.0000,-20.5587,1010.76
190.9000,-19.321,1009.18
190.8000,-15.4019,1007.76
190.7000,-12.8773,1006.32
190.6000,-10.724,1004.94
190.5000,-6.15957,1003.73
190.4000,9.50473,1002.8
190.3000,22.5744,1001.84
190.2000,32.4283,1000.81
190.1000,40.2423,999.686
190.0000,43.7488,998.561

##### Extended Information
[Comments]
Sample name,DL121 5C Dark 2
Comment
User,JM
Division
Company,UT Southwestern Medical Center at Dallas

[Detailed Information]
Creation date,5/1/2023 11:31 AM

Data array type,Linear data array * 2
Horizontal axis,Wavelength [nm]
Vertical axis(1),CD [mdeg]
Vertical axis(2),HT [V]
Start,250 nm
End,190 nm
Data interval,0.1 nm
Data points,601     

[Measurement Information]
Instrument name,Jasco CD
Model name,J-815
Serial No.,B064061168

Accessory,CDF-426S
Accessory S/N,A00861183
  Temperature,4.99 C
  Control sonsor,Holder
  Monitor sensor,Holder
  Start Mode,Keep target temperature +/-0.10 deg C while 5 seconds
  Cell length,10 mm

Measurement date,5/1/2023 11:31 AM

Photometric mode,CD, HT
Measure range,250 - 190 nm
Data pitch,0.1 nm
Sensitivity,Standard
D.I.T.,1 sec
Bandwidth,1.00 nm
Start mode,Immediately
Scanning speed,100 nm/min
Baseline correction,None
Shutter control,Manual
CD detector,PMT
PMT voltage,Auto
No. of cycle,1/3

Concentration,0.7 (w/v)%
Solvent,50mM nap04 ph 6.5 100mM NaF

