TITLE,DL121 15C Dark melt 2
DATA TYPE,
ORIGIN,JASCO
OWNER,
DATE,23/05/01
TIME,16:42:27
SPECTROMETER/DATA SYSTEM,
LOCALE,1033
RESOLUTION,
DELTAX,-0.1
XUNITS,NANOMETERS
YUNITS,CD [mdeg]
Y2UNITS,HT [V]
FIRSTX,  250.0000
LASTX,  190.0000
NPOINTS,     601
FIRSTY,    -0.77300
MAXY,    96.97102
MINY,   -59.68447
XYDATA
250.0000,-0.772998,286.175
249.9000,-0.765488,286.215
249.8000,-0.767084,286.26
249.7000,-0.769724,286.306
249.6000,-0.771252,286.35
249.5000,-0.815509,286.398
249.4000,-0.887592,286.443
249.3000,-0.956583,286.492
249.2000,-1.01115,286.545
249.1000,-1.06511,286.592
249.0000,-1.09038,286.634
248.9000,-1.09906,286.682
248.8000,-1.08232,286.737
248.7000,-1.08495,286.788
248.6000,-1.06196,286.837
248.5000,-1.0126,286.887
248.4000,-0.984924,286.936
248.3000,-0.986496,286.988
248.2000,-0.974991,287.04
248.1000,-0.958417,287.087
248.0000,-0.959787,287.137
247.9000,-0.992572,287.184
247.8000,-1.00885,287.23
247.7000,-1.00599,287.283
247.6000,-1.04704,287.338
247.5000,-1.09587,287.39
247.4000,-1.09969,287.449
247.3000,-1.12364,287.512
247.2000,-1.12389,287.574
247.1000,-1.12692,287.638
247.0000,-1.12476,287.704
246.9000,-1.12309,287.774
246.8000,-1.1173,287.844
246.7000,-1.1266,287.913
246.6000,-1.14215,287.978
246.5000,-1.17958,288.049
246.4000,-1.20997,288.128
246.3000,-1.22585,288.209
246.2000,-1.25515,288.288
246.1000,-1.31287,288.366
246.0000,-1.36389,288.444
245.9000,-1.34587,288.526
245.8000,-1.32855,288.607
245.7000,-1.33456,288.681
245.6000,-1.35961,288.757
245.5000,-1.40538,288.833
245.4000,-1.45675,288.908
245.3000,-1.52489,288.981
245.2000,-1.63349,289.051
245.1000,-1.76266,289.125
245.0000,-1.87072,289.208
244.9000,-1.96381,289.297
244.8000,-2.05161,289.381
244.7000,-2.11959,289.463
244.6000,-2.13934,289.548
244.5000,-2.15085,289.638
244.4000,-2.16413,289.727
244.3000,-2.23509,289.815
244.2000,-2.30501,289.906
244.1000,-2.3745,290
244.0000,-2.46655,290.093
243.9000,-2.56751,290.183
243.8000,-2.65685,290.281
243.7000,-2.73698,290.383
243.6000,-2.8614,290.487
243.5000,-2.91346,290.593
243.4000,-2.92691,290.699
243.3000,-2.95561,290.805
243.2000,-2.96302,290.913
243.1000,-2.97954,291.024
243.0000,-3.04223,291.141
242.9000,-3.10792,291.266
242.8000,-3.13218,291.395
242.7000,-3.15282,291.524
242.6000,-3.2069,291.649
242.5000,-3.28419,291.772
242.4000,-3.319,291.904
242.3000,-3.34929,292.043
242.2000,-3.37069,292.185
242.1000,-3.38384,292.324
242.0000,-3.40103,292.462
241.9000,-3.40219,292.603
241.8000,-3.49434,292.747
241.7000,-3.59043,292.896
241.6000,-3.64663,293.048
241.5000,-3.7407,293.197
241.4000,-3.81686,293.349
241.3000,-3.86107,293.501
241.2000,-3.92938,293.655
241.1000,-4.03872,293.811
241.0000,-4.14928,293.973
240.9000,-4.21022,294.141
240.8000,-4.27813,294.312
240.7000,-4.37862,294.482
240.6000,-4.43322,294.659
240.5000,-4.51944,294.84
240.4000,-4.57305,295.029
240.3000,-4.65655,295.22
240.2000,-4.76435,295.418
240.1000,-4.82485,295.616
240.0000,-4.90479,295.815
239.9000,-4.98699,296.022
239.8000,-5.03953,296.235
239.7000,-5.11567,296.45
239.6000,-5.23056,296.668
239.5000,-5.35553,296.89
239.4000,-5.45327,297.124
239.3000,-5.53483,297.365
239.2000,-5.64981,297.608
239.1000,-5.76184,297.857
239.0000,-5.88332,298.107
238.9000,-6.01906,298.363
238.8000,-6.1617,298.623
238.7000,-6.32968,298.891
238.6000,-6.4485,299.165
238.5000,-6.54607,299.447
238.4000,-6.67567,299.733
238.3000,-6.80697,300.025
238.2000,-6.96129,300.319
238.1000,-7.12702,300.617
238.0000,-7.33442,300.92
237.9000,-7.50864,301.233
237.8000,-7.65277,301.545
237.7000,-7.78298,301.861
237.6000,-7.93647,302.189
237.5000,-8.08965,302.523
237.4000,-8.25827,302.857
237.3000,-8.43554,303.195
237.2000,-8.57478,303.54
237.1000,-8.70288,303.892
237.0000,-8.83957,304.247
236.9000,-8.99884,304.604
236.8000,-9.1798,304.965
236.7000,-9.34479,305.337
236.6000,-9.53395,305.719
236.5000,-9.77422,306.108
236.4000,-10.0026,306.51
236.3000,-10.1814,306.924
236.2000,-10.295,307.345
236.1000,-10.4325,307.77
236.0000,-10.5992,308.19
235.9000,-10.6979,308.612
235.8000,-10.8496,309.043
235.7000,-10.9522,309.481
235.6000,-11.051,309.931
235.5000,-11.1931,310.388
235.4000,-11.3993,310.848
235.3000,-11.6001,311.313
235.2000,-11.8189,311.782
235.1000,-12.0662,312.255
235.0000,-12.3246,312.733
234.9000,-12.5041,313.222
234.8000,-12.6095,313.717
234.7000,-12.7449,314.21
234.6000,-12.8984,314.705
234.5000,-13.1449,315.205
234.4000,-13.4354,315.718
234.3000,-13.7207,316.242
234.2000,-13.9738,316.779
234.1000,-14.2056,317.321
234.0000,-14.4824,317.869
233.9000,-14.7851,318.418
233.8000,-15.057,318.971
233.7000,-15.3369,319.528
233.6000,-15.5616,320.1
233.5000,-15.7869,320.684
233.4000,-15.9654,321.275
233.3000,-16.1605,321.866
233.2000,-16.4194,322.458
233.1000,-16.6758,323.059
233.0000,-16.9348,323.669
232.9000,-17.2128,324.285
232.8000,-17.3577,324.904
232.7000,-17.4398,325.53
232.6000,-17.6,326.154
232.5000,-17.8073,326.782
232.4000,-18.0588,327.411
232.3000,-18.3264,328.044
232.2000,-18.5968,328.677
232.1000,-18.7892,329.322
232.0000,-18.991,329.975
231.9000,-19.274,330.625
231.8000,-19.5405,331.279
231.7000,-19.8342,331.937
231.6000,-20.1052,332.606
231.5000,-20.3563,333.275
231.4000,-20.6171,333.943
231.3000,-20.8473,334.614
231.2000,-21.0882,335.281
231.1000,-21.3643,335.951
231.0000,-21.6484,336.624
230.9000,-21.9645,337.299
230.8000,-22.2667,337.971
230.7000,-22.5668,338.642
230.6000,-22.809,339.309
230.5000,-23.0551,339.979
230.4000,-23.3831,340.645
230.3000,-23.7181,341.308
230.2000,-24.0333,341.973
230.1000,-24.3335,342.63
230.0000,-24.6834,343.28
229.9000,-25.0913,343.919
229.8000,-25.4669,344.556
229.7000,-25.8482,345.196
229.6000,-26.2771,345.837
229.5000,-26.6438,346.485
229.4000,-27.0054,347.13
229.3000,-27.391,347.77
229.2000,-27.7345,348.408
229.1000,-28.1539,349.053
229.0000,-28.4987,349.706
228.9000,-28.8765,350.359
228.8000,-29.2221,351.008
228.7000,-29.5818,351.655
228.6000,-29.9577,352.295
228.5000,-30.4423,352.932
228.4000,-30.877,353.572
228.3000,-31.2613,354.214
228.2000,-31.5321,354.858
228.1000,-31.8927,355.498
228.0000,-32.2857,356.132
227.9000,-32.6328,356.761
227.8000,-33.0215,357.379
227.7000,-33.3406,357.996
227.6000,-33.6352,358.612
227.5000,-33.9306,359.22
227.4000,-34.1592,359.821
227.3000,-34.4907,360.412
227.2000,-34.8385,361.004
227.1000,-35.2413,361.595
227.0000,-35.5821,362.19
226.9000,-35.8801,362.787
226.8000,-36.0922,363.382
226.7000,-36.2631,363.971
226.6000,-36.5069,364.557
226.5000,-36.7786,365.15
226.4000,-37.0192,365.743
226.3000,-37.2804,366.333
226.2000,-37.5351,366.924
226.1000,-37.8988,367.512
226.0000,-38.2285,368.099
225.9000,-38.5249,368.686
225.8000,-38.8733,369.276
225.7000,-39.1739,369.871
225.6000,-39.5566,370.461
225.5000,-39.9221,371.038
225.4000,-40.2192,371.609
225.3000,-40.5419,372.174
225.2000,-40.8534,372.74
225.1000,-41.2382,373.307
225.0000,-41.5703,373.879
224.9000,-41.8666,374.447
224.8000,-42.2477,375.002
224.7000,-42.6577,375.555
224.6000,-42.954,376.114
224.5000,-43.2279,376.676
224.4000,-43.5102,377.234
224.3000,-43.8592,377.792
224.2000,-44.1413,378.349
224.1000,-44.406,378.905
224.0000,-44.6845,379.459
223.9000,-44.8882,380.019
223.8000,-45.1255,380.583
223.7000,-45.2821,381.149
223.6000,-45.4165,381.719
223.5000,-45.5564,382.288
223.4000,-45.7045,382.851
223.3000,-45.9038,383.408
223.2000,-46.2202,383.961
223.1000,-46.4499,384.527
223.0000,-46.6165,385.093
222.9000,-46.8601,385.651
222.8000,-47.0697,386.21
222.7000,-47.305,386.771
222.6000,-47.474,387.334
222.5000,-47.6538,387.895
222.4000,-47.8027,388.454
222.3000,-48.0038,389.012
222.2000,-48.2453,389.576
222.1000,-48.5577,390.134
222.0000,-48.8578,390.695
221.9000,-49.128,391.253
221.8000,-49.4565,391.807
221.7000,-49.7185,392.367
221.6000,-49.9936,392.93
221.5000,-50.1855,393.494
221.4000,-50.3104,394.052
221.3000,-50.4368,394.614
221.2000,-50.573,395.184
221.1000,-50.7407,395.754
221.0000,-50.8952,396.321
220.9000,-51.2048,396.888
220.8000,-51.4417,397.458
220.7000,-51.5295,398.036
220.6000,-51.5211,398.617
220.5000,-51.4141,399.198
220.4000,-51.2791,399.781
220.3000,-51.2349,400.364
220.2000,-51.1108,400.952
220.1000,-51.0106,401.54
220.0000,-51.0227,402.118
219.9000,-50.9898,402.701
219.8000,-50.9516,403.287
219.7000,-51.0476,403.863
219.6000,-51.1973,404.435
219.5000,-51.2867,405.006
219.4000,-51.2365,405.59
219.3000,-51.2098,406.17
219.2000,-51.1684,406.745
219.1000,-51.2163,407.32
219.0000,-51.4142,407.893
218.9000,-51.7062,408.463
218.8000,-51.9504,409.039
218.7000,-52.128,409.616
218.6000,-52.3668,410.191
218.5000,-52.6148,410.77
218.4000,-52.7612,411.36
218.3000,-52.7801,411.964
218.2000,-52.7332,412.562
218.1000,-52.6508,413.164
218.0000,-52.634,413.769
217.9000,-52.4956,414.381
217.8000,-52.4942,414.988
217.7000,-52.5041,415.588
217.6000,-52.4531,416.207
217.5000,-52.5564,416.825
217.4000,-52.5687,417.448
217.3000,-52.4448,418.081
217.2000,-52.3365,418.717
217.1000,-52.2587,419.352
217.0000,-52.2247,419.988
216.9000,-52.1811,420.628
216.8000,-52.2566,421.268
216.7000,-52.321,421.911
216.6000,-52.2753,422.566
216.5000,-52.2992,423.234
216.4000,-52.2158,423.917
216.3000,-52.1663,424.611
216.2000,-52.0392,425.31
216.1000,-51.7759,426.023
216.0000,-51.5915,426.744
215.9000,-51.4466,427.474
215.8000,-51.2262,428.217
215.7000,-51.0818,428.964
215.6000,-50.9366,429.712
215.5000,-50.6832,430.471
215.4000,-50.5159,431.237
215.3000,-50.3802,432.005
215.2000,-49.9745,432.791
215.1000,-49.4527,433.588
215.0000,-49.1906,434.389
214.9000,-49.0773,435.19
214.8000,-48.9683,435.996
214.7000,-48.6868,436.816
214.6000,-48.5162,437.638
214.5000,-48.3395,438.473
214.4000,-48.1043,439.323
214.3000,-47.7564,440.189
214.2000,-47.4279,441.063
214.1000,-47.1251,441.944
214.0000,-46.8512,442.835
213.9000,-46.6104,443.74
213.8000,-46.6182,444.65
213.7000,-46.4186,445.594
213.6000,-46.1637,446.558
213.5000,-46.33,447.517
213.4000,-46.396,448.493
213.3000,-46.3063,449.485
213.2000,-46.1996,450.494
213.1000,-46.176,451.512
213.0000,-46.1805,452.548
212.9000,-46.2853,453.603
212.8000,-46.6621,454.668
212.7000,-46.9174,455.747
212.6000,-47.0454,456.841
212.5000,-47.1739,457.949
212.4000,-47.4411,459.073
212.3000,-47.7019,460.22
212.2000,-47.9424,461.388
212.1000,-48.1432,462.565
212.0000,-48.3415,463.75
211.9000,-48.3868,464.956
211.8000,-48.0286,466.2
211.7000,-48.0945,467.457
211.6000,-48.04,468.731
211.5000,-47.7959,470.033
211.4000,-47.9515,471.348
211.3000,-48.1478,472.673
211.2000,-48.0964,474.015
211.1000,-47.8258,475.384
211.0000,-47.7631,476.771
210.9000,-47.7954,478.181
210.8000,-47.6627,479.612
210.7000,-47.6212,481.064
210.6000,-47.7625,482.528
210.5000,-47.7179,484.029
210.4000,-47.4774,485.571
210.3000,-47.4767,487.134
210.2000,-47.7276,488.712
210.1000,-47.9292,490.316
210.0000,-47.6684,491.959
209.9000,-47.8512,493.62
209.8000,-48.1829,495.304
209.7000,-48.0352,497.029
209.6000,-47.606,498.802
209.5000,-47.3184,500.616
209.4000,-47.3051,502.444
209.3000,-47.5104,504.281
209.2000,-47.8566,506.146
209.1000,-48.126,508.058
209.0000,-48.2446,510.007
208.9000,-47.9733,512.008
208.8000,-47.6474,514.047
208.7000,-47.7217,516.11
208.6000,-47.6627,518.218
208.5000,-47.2294,520.392
208.4000,-46.9563,522.604
208.3000,-46.9205,524.843
208.2000,-46.6982,527.126
208.1000,-46.2914,529.455
208.0000,-45.961,531.824
207.9000,-45.5963,534.231
207.8000,-45.288,536.675
207.7000,-44.7582,539.183
207.6000,-43.7687,541.751
207.5000,-42.7715,544.357
207.4000,-41.9908,546.99
207.3000,-41.7233,549.649
207.2000,-41.8014,552.347
207.1000,-41.8288,555.088
207.0000,-41.3263,557.878
206.9000,-41.0792,560.699
206.8000,-41.1954,563.551
206.7000,-40.6652,566.485
206.6000,-40.2237,569.471
206.5000,-39.755,572.51
206.4000,-39.0999,575.62
206.3000,-39.0782,578.771
206.2000,-39.0468,581.98
206.1000,-38.7618,585.248
206.0000,-38.7341,588.568
205.9000,-38.8592,591.944
205.8000,-38.473,595.383
205.7000,-37.6454,598.882
205.6000,-36.4117,602.431
205.5000,-34.4754,606.051
205.4000,-32.6343,609.732
205.3000,-31.4528,613.447
205.2000,-29.7913,617.22
205.1000,-29.05,621
205.0000,-28.6802,624.801
204.9000,-28.1621,628.651
204.8000,-27.1283,632.552
204.7000,-26.5497,636.467
204.6000,-25.7801,640.414
204.5000,-24.2906,644.42
204.4000,-23.533,648.453
204.3000,-22.3434,652.554
204.2000,-20.7269,656.7
204.1000,-20.1274,660.867
204.0000,-19.2937,665.093
203.9000,-19.6641,669.311
203.8000,-20.7879,673.528
203.7000,-21.4061,677.791
203.6000,-22.8096,682.067
203.5000,-23.8127,686.377
203.4000,-23.1872,690.762
203.3000,-22.7889,695.154
203.2000,-22.7143,699.555
203.1000,-22.1892,703.993
203.0000,-20.0264,708.486
202.9000,-17.3857,713.001
202.8000,-15.9078,717.47
202.7000,-13.1433,721.965
202.6000,-8.50182,726.516
202.5000,-3.56701,731.073
202.4000,0.853015,735.587
202.3000,3.25674,740.021
202.2000,4.98769,744.437
202.1000,6.18077,748.799
202.0000,5.35285,753.065
201.9000,4.61516,757.323
201.8000,3.07509,761.535
201.7000,-2.1201,765.596
201.6000,-7.37957,769.63
201.5000,-7.85795,773.764
201.4000,-9.66528,777.815
201.3000,-14.5037,781.714
201.2000,-18.8206,785.59
201.1000,-21.9734,789.468
201.0000,-29.6952,793.112
200.9000,-39.1305,796.659
200.8000,-49.7737,800.123
200.7000,-59.1424,803.571
200.6000,-59.6845,807.234
200.5000,-57.3811,810.883
200.4000,-56.4757,814.453
200.3000,-53.0155,818.032
200.2000,-47.6074,821.58
200.1000,-39.1636,825.11
200.0000,-26.2775,828.738
199.9000,-13.188,832.305
199.8000,-12.0812,835.392
199.7000,-14.5765,838.303
199.6000,-13.8366,841.234
199.5000,-10.8696,844.168
199.4000,-2.94086,846.937
199.3000,10.0657,833.625
199.2000,20.166,825.285
199.1000,29.1229,829.365
199.0000,30.7403,834.021
198.9000,22.8656,838.411
198.8000,17.3723,842.814
198.7000,12.7927,847.164
198.6000,12.0212,851.626
198.5000,10.8001,855.934
198.4000,5.26526,860.039
198.3000,-8.66832,863.828
198.2000,-16.1304,867.763
198.1000,-12.4873,871.953
198.0000,-9.76731,876.037
197.9000,-7.28952,880.06
197.8000,-2.62399,884.109
197.7000,-10.1482,890.536
197.6000,-19.2479,915.017
197.5000,-25.4957,922.295
197.4000,-28.6054,924.003
197.3000,-30.5428,925.109
197.2000,-25.8324,926.302
197.1000,-23.4295,927.432
197.0000,-21.4664,927.94
196.9000,-22.4737,909.252
196.8000,-23.3456,900.947
196.7000,-24.2521,905.015
196.6000,-27.2322,910.022
196.5000,-33.2877,915.089
196.4000,-34.3503,920.268
196.3000,-33.334,925.572
196.2000,-38.6717,930.605
196.1000,-43.4497,935.563
196.0000,-41.9638,940.689
195.9000,-40.052,945.937
195.8000,-42.4041,950.942
195.7000,-46.0938,955.784
195.6000,-44.717,960.965
195.5000,-38.8256,966.191
195.4000,-27.2514,971.399
195.3000,-29.3857,980.289
195.2000,-35.3062,1007.23
195.1000,-41.9803,1013.76
195.0000,-39.76,1014.55
194.9000,-37.3328,1014.74
194.8000,-36.1374,1014.73
194.7000,-38.9259,1014.62
194.6000,-38.6614,1014.42
194.5000,-33.8531,1014.36
194.4000,-22.7369,1014.44
194.3000,-19.6281,1014.24
194.2000,-16.5695,1013.98
194.1000,-14.4459,1013.56
194.0000,-7.35083,1013.37
193.9000,-1.37388,1013.12
193.8000,-0.222455,1012.62
193.7000,-2.23379,1012.02
193.6000,7.31985,1011.71
193.5000,14.1171,1011.35
193.4000,17.3654,1010.84
193.3000,17.4428,1010.28
193.2000,19.1608,1009.66
193.1000,28.2311,1009.28
193.0000,33.5397,1008.69
192.9000,38.8888,1008.08
192.8000,37.9155,1007.26
192.7000,29.5368,1006.2
192.6000,27.5486,1005.19
192.5000,31.4697,1004.36
192.4000,38.9417,1003.69
192.3000,44.089,1002.82
192.2000,43.7808,1001.9
192.1000,45.7056,1001.11
192.0000,52.427,1000.23
191.9000,59.5587,999.516
191.8000,71.8199,999.053
191.7000,86.299,998.711
191.6000,94.691,998.105
191.5000,96.971,997.271
191.4000,92.9893,996.293
191.3000,88.2602,995.205
191.2000,77.2082,993.978
191.1000,70.8081,992.867
191.0000,74.113,992.082
190.9000,71.7546,991.233
190.8000,68.2214,990.215
190.7000,66.8521,989.266
190.6000,66.2007,988.44
190.5000,66.0511,987.536
190.4000,58.8071,986.388
190.3000,54.9347,985.591
190.2000,51.2658,984.652
190.1000,42.5389,983.379
190.0000,32.093,982.145

##### Extended Information
[Comments]
Sample name,DL121 15C Dark melt 2
Comment
User,JM
Division
Company,UT Southwestern Medical Center at Dallas

[Detailed Information]
Creation date,5/1/2023 4:42 PM

Data array type,Linear data array * 2
Horizontal axis,Wavelength [nm]
Vertical axis(1),CD [mdeg]
Vertical axis(2),HT [V]
Start,250 nm
End,190 nm
Data interval,0.1 nm
Data points,601     

[Measurement Information]
Instrument name,Jasco CD
Model name,J-815
Serial No.,B064061168

Accessory,CDF-426S
Accessory S/N,A00861183
  Temperature,14.99 C
  Control sonsor,Holder
  Monitor sensor,Holder
  Start Mode,Keep target temperature +/-0.10 deg C while 5 seconds
  Cell length,10 mm

Measurement date,5/1/2023 4:42 PM

Photometric mode,CD, HT
Measure range,250 - 190 nm
Data pitch,0.1 nm
Sensitivity,Standard
D.I.T.,1 sec
Bandwidth,1.00 nm
Start mode,Immediately
Scanning speed,100 nm/min
Baseline correction,None
Shutter control,Manual
CD detector,PMT
PMT voltage,Auto
No. of cycle,2/3

Concentration,0.7 (w/v)%
Solvent,50mM nap04 ph 6.5 100mM NaF

