TITLE,DL121 45C Dark
DATA TYPE,
ORIGIN,JASCO
OWNER,
DATE,23/05/01
TIME,14:04:53
SPECTROMETER/DATA SYSTEM,
LOCALE,1033
RESOLUTION,
DELTAX,-0.1
XUNITS,NANOMETERS
YUNITS,CD [mdeg]
Y2UNITS,HT [V]
FIRSTX,  250.0000
LASTX,  190.0000
NPOINTS,     601
FIRSTY,    -1.10658
MAXY,    77.05110
MINY,   -70.10297
XYDATA
250.0000,-1.10658,290.778
249.9000,-1.06886,290.82
249.8000,-1.06759,290.87
249.7000,-1.11291,290.922
249.6000,-1.16748,290.973
249.5000,-1.17402,291.028
249.4000,-1.09405,291.081
249.3000,-0.984195,291.136
249.2000,-0.894543,291.195
249.1000,-0.813123,291.256
249.0000,-0.756668,291.316
248.9000,-0.722369,291.374
248.8000,-0.644202,291.434
248.7000,-0.596606,291.492
248.6000,-0.532794,291.555
248.5000,-0.487604,291.62
248.4000,-0.463864,291.685
248.3000,-0.454938,291.755
248.2000,-0.470538,291.821
248.1000,-0.43688,291.882
248.0000,-0.412518,291.947
247.9000,-0.40202,292.014
247.8000,-0.417972,292.082
247.7000,-0.467279,292.151
247.6000,-0.514813,292.224
247.5000,-0.55502,292.293
247.4000,-0.601761,292.359
247.3000,-0.637561,292.431
247.2000,-0.659918,292.504
247.1000,-0.712463,292.577
247.0000,-0.779236,292.65
246.9000,-0.878601,292.72
246.8000,-0.9758,292.794
246.7000,-1.03849,292.869
246.6000,-1.08814,292.944
246.5000,-1.16577,293.027
246.4000,-1.22426,293.113
246.3000,-1.27839,293.198
246.2000,-1.30591,293.282
246.1000,-1.30033,293.371
246.0000,-1.27668,293.464
245.9000,-1.26648,293.558
245.8000,-1.2672,293.652
245.7000,-1.26292,293.742
245.6000,-1.25437,293.832
245.5000,-1.25924,293.924
245.4000,-1.26517,294.021
245.3000,-1.31673,294.121
245.2000,-1.34602,294.221
245.1000,-1.35856,294.322
245.0000,-1.40613,294.421
244.9000,-1.43278,294.522
244.8000,-1.44939,294.623
244.7000,-1.49258,294.728
244.6000,-1.54279,294.837
244.5000,-1.59738,294.951
244.4000,-1.69476,295.06
244.3000,-1.81707,295.165
244.2000,-1.93878,295.268
244.1000,-2.05193,295.375
244.0000,-2.12587,295.489
243.9000,-2.22493,295.606
243.8000,-2.32838,295.729
243.7000,-2.3686,295.857
243.6000,-2.35125,295.986
243.5000,-2.34697,296.113
243.4000,-2.38427,296.24
243.3000,-2.42198,296.374
243.2000,-2.46183,296.51
243.1000,-2.48733,296.648
243.0000,-2.48345,296.791
242.9000,-2.51464,296.931
242.8000,-2.614,297.066
242.7000,-2.71628,297.203
242.6000,-2.79263,297.347
242.5000,-2.80366,297.502
242.4000,-2.79053,297.661
242.3000,-2.79566,297.815
242.2000,-2.79626,297.968
242.1000,-2.87279,298.12
242.0000,-2.94718,298.273
241.9000,-3.03253,298.431
241.8000,-3.12691,298.592
241.7000,-3.19437,298.757
241.6000,-3.23945,298.925
241.5000,-3.30996,299.094
241.4000,-3.37525,299.265
241.3000,-3.49805,299.434
241.2000,-3.58427,299.611
241.1000,-3.62426,299.796
241.0000,-3.6668,299.988
240.9000,-3.76331,300.181
240.8000,-3.8902,300.373
240.7000,-4.00702,300.568
240.6000,-4.17113,300.766
240.5000,-4.30538,300.968
240.4000,-4.37814,301.178
240.3000,-4.42235,301.393
240.2000,-4.48156,301.615
240.1000,-4.52448,301.845
240.0000,-4.61267,302.075
239.9000,-4.70523,302.308
239.8000,-4.82075,302.548
239.7000,-4.95225,302.794
239.6000,-5.01602,303.049
239.5000,-5.10572,303.306
239.4000,-5.20012,303.561
239.3000,-5.25289,303.823
239.2000,-5.2554,304.088
239.1000,-5.28177,304.358
239.0000,-5.3361,304.632
238.9000,-5.35498,304.917
238.8000,-5.40208,305.207
238.7000,-5.49267,305.497
238.6000,-5.563,305.79
238.5000,-5.6324,306.089
238.4000,-5.70486,306.392
238.3000,-5.76206,306.702
238.2000,-5.80361,307.014
238.1000,-5.83234,307.331
238.0000,-5.87854,307.65
237.9000,-6.00331,307.974
237.8000,-6.05187,308.309
237.7000,-6.11711,308.65
237.6000,-6.25935,308.993
237.5000,-6.41406,309.34
237.4000,-6.58849,309.689
237.3000,-6.74041,310.045
237.2000,-6.90077,310.405
237.1000,-7.07396,310.766
237.0000,-7.2126,311.132
236.9000,-7.36418,311.504
236.8000,-7.50341,311.884
236.7000,-7.62399,312.274
236.6000,-7.76775,312.669
236.5000,-7.88495,313.073
236.4000,-7.97205,313.486
236.3000,-8.02055,313.913
236.2000,-8.07061,314.348
236.1000,-8.17391,314.786
236.0000,-8.22116,315.228
235.9000,-8.25187,315.676
235.8000,-8.25999,316.134
235.7000,-8.26822,316.601
235.6000,-8.34964,317.076
235.5000,-8.43437,317.559
235.4000,-8.52062,318.05
235.3000,-8.63458,318.547
235.2000,-8.72945,319.049
235.1000,-8.86603,319.556
235.0000,-9.03953,320.069
234.9000,-9.13871,320.592
234.8000,-9.2048,321.12
234.7000,-9.35258,321.645
234.6000,-9.50411,322.17
234.5000,-9.66142,322.702
234.4000,-9.84518,323.245
234.3000,-10.1459,323.794
234.2000,-10.3917,324.353
234.1000,-10.6479,324.918
234.0000,-10.853,325.493
233.9000,-11.0174,326.079
233.8000,-11.1479,326.67
233.7000,-11.2686,327.27
233.6000,-11.4738,327.876
233.5000,-11.6301,328.489
233.4000,-11.7556,329.107
233.3000,-11.8673,329.732
233.2000,-12.1275,330.36
233.1000,-12.3814,330.998
233.0000,-12.6074,331.641
232.9000,-12.7459,332.291
232.8000,-12.8658,332.944
232.7000,-12.956,333.609
232.6000,-13.059,334.28
232.5000,-13.2255,334.957
232.4000,-13.3223,335.636
232.3000,-13.4428,336.311
232.2000,-13.5549,336.985
232.1000,-13.6321,337.671
232.0000,-13.6512,338.364
231.9000,-13.6358,339.062
231.8000,-13.7395,339.765
231.7000,-13.8562,340.474
231.6000,-14.0246,341.185
231.5000,-14.1609,341.898
231.4000,-14.2536,342.615
231.3000,-14.3626,343.34
231.2000,-14.547,344.068
231.1000,-14.7906,344.798
231.0000,-15.0307,345.527
230.9000,-15.2811,346.259
230.8000,-15.5064,346.993
230.7000,-15.7853,347.73
230.6000,-16.0651,348.473
230.5000,-16.3831,349.222
230.4000,-16.7696,349.969
230.3000,-17.2042,350.714
230.2000,-17.6188,351.456
230.1000,-17.878,352.202
230.0000,-18.0718,352.955
229.9000,-18.1956,353.715
229.8000,-18.3412,354.477
229.7000,-18.4658,355.249
229.6000,-18.6367,356.019
229.5000,-18.8484,356.791
229.4000,-19.069,357.563
229.3000,-19.2515,358.337
229.2000,-19.4057,359.111
229.1000,-19.6691,359.894
229.0000,-19.8748,360.681
228.9000,-20.125,361.467
228.8000,-20.3161,362.252
228.7000,-20.4911,363.035
228.6000,-20.6476,363.822
228.5000,-20.8248,364.62
228.4000,-21.0499,365.42
228.3000,-21.3531,366.214
228.2000,-21.6352,367.004
228.1000,-21.9704,367.785
228.0000,-22.2585,368.564
227.9000,-22.497,369.336
227.8000,-22.7056,370.11
227.7000,-22.9276,370.887
227.6000,-23.1569,371.667
227.5000,-23.3893,372.441
227.4000,-23.6002,373.201
227.3000,-23.8439,373.951
227.2000,-24.0771,374.704
227.1000,-24.3648,375.462
227.0000,-24.5528,376.222
226.9000,-24.6931,376.977
226.8000,-24.8476,377.718
226.7000,-25.1688,378.448
226.6000,-25.4331,379.183
226.5000,-25.7167,379.932
226.4000,-26.0307,380.682
226.3000,-26.4501,381.423
226.2000,-26.7477,382.165
226.1000,-27.0368,382.9
226.0000,-27.3281,383.627
225.9000,-27.6091,384.36
225.8000,-27.887,385.102
225.7000,-28.0808,385.855
225.6000,-28.1274,386.606
225.5000,-28.0761,387.347
225.4000,-28.1303,388.079
225.3000,-28.3526,388.812
225.2000,-28.6534,389.549
225.1000,-28.8711,390.288
225.0000,-28.8979,391.027
224.9000,-28.9087,391.755
224.8000,-28.9815,392.472
224.7000,-29.1132,393.192
224.6000,-29.3212,393.919
224.5000,-29.6027,394.646
224.4000,-29.8582,395.374
224.3000,-30.1241,396.095
224.2000,-30.4849,396.801
224.1000,-30.8028,397.506
224.0000,-31.1113,398.211
223.9000,-31.5911,398.915
223.8000,-32.1133,399.617
223.7000,-32.4409,400.318
223.6000,-32.6882,401.017
223.5000,-32.8704,401.718
223.4000,-33.13,402.422
223.3000,-33.3822,403.13
223.2000,-33.5571,403.836
223.1000,-33.7113,404.537
223.0000,-33.97,405.226
222.9000,-34.2298,405.915
222.8000,-34.4428,406.6
222.7000,-34.4959,407.292
222.6000,-34.5064,407.989
222.5000,-34.5256,408.686
222.4000,-34.6361,409.377
222.3000,-34.777,410.063
222.2000,-34.7305,410.757
222.1000,-34.7785,411.457
222.0000,-35.0176,412.159
221.9000,-35.2239,412.862
221.8000,-35.4557,413.558
221.7000,-35.7345,414.246
221.6000,-36.0194,414.93
221.5000,-36.3363,415.62
221.4000,-36.6272,416.312
221.3000,-36.6997,417.02
221.2000,-36.6273,417.731
221.1000,-36.7069,418.436
221.0000,-36.8561,419.136
220.9000,-36.8788,419.838
220.8000,-36.7744,420.547
220.7000,-36.8104,421.262
220.6000,-36.9893,421.987
220.5000,-37.2037,422.705
220.4000,-37.1573,423.425
220.3000,-37.0136,424.144
220.2000,-37.1647,424.852
220.1000,-37.3507,425.568
220.0000,-37.5127,426.297
219.9000,-37.6057,427.034
219.8000,-37.6759,427.77
219.7000,-37.7815,428.506
219.6000,-37.9688,429.238
219.5000,-38.1914,429.972
219.4000,-38.5376,430.709
219.3000,-38.9319,431.444
219.2000,-39.3336,432.181
219.1000,-39.7471,432.919
219.0000,-39.9472,433.658
218.9000,-39.9773,434.4
218.8000,-40.1339,435.142
218.7000,-40.1503,435.896
218.6000,-40.1798,436.663
218.5000,-40.1976,437.44
218.4000,-40.1534,438.212
218.3000,-40.2106,438.979
218.2000,-40.437,439.741
218.1000,-40.7901,440.501
218.0000,-41.0486,441.267
217.9000,-41.2733,442.045
217.8000,-41.4726,442.836
217.7000,-41.4044,443.64
217.6000,-41.4023,444.452
217.5000,-41.2604,445.273
217.4000,-41.2426,446.095
217.3000,-41.2521,446.925
217.2000,-41.2868,447.772
217.1000,-41.4782,448.619
217.0000,-41.7596,449.461
216.9000,-41.7925,450.312
216.8000,-41.8993,451.171
216.7000,-42.1493,452.044
216.6000,-42.3484,452.934
216.5000,-42.3459,453.843
216.4000,-42.2144,454.775
216.3000,-42.1584,455.713
216.2000,-42.049,456.655
216.1000,-42.1294,457.603
216.0000,-42.1656,458.566
215.9000,-42.3353,459.538
215.8000,-42.4949,460.518
215.7000,-42.4127,461.512
215.6000,-42.3488,462.511
215.5000,-42.3138,463.522
215.4000,-42.3002,464.553
215.3000,-42.4092,465.595
215.2000,-42.7447,466.638
215.1000,-42.941,467.692
215.0000,-43.0126,468.758
214.9000,-43.335,469.827
214.8000,-43.6629,470.904
214.7000,-43.8149,472.004
214.6000,-43.9772,473.126
214.5000,-44.1435,474.261
214.4000,-44.2565,475.408
214.3000,-44.411,476.563
214.2000,-44.6409,477.733
214.1000,-45.0471,478.929
214.0000,-45.6863,480.141
213.9000,-46.3889,481.367
213.8000,-46.7487,482.616
213.7000,-46.9133,483.88
213.6000,-46.8379,485.171
213.5000,-46.6466,486.486
213.4000,-46.6688,487.819
213.3000,-46.5726,489.171
213.2000,-46.2827,490.55
213.1000,-45.8836,491.952
213.0000,-45.5982,493.363
212.9000,-45.3308,494.792
212.8000,-44.9192,496.245
212.7000,-44.6283,497.72
212.6000,-44.2567,499.223
212.5000,-43.7012,500.752
212.4000,-42.9179,502.305
212.3000,-42.1183,503.882
212.2000,-41.38,505.472
212.1000,-40.9166,507.078
212.0000,-40.7046,508.705
211.9000,-40.3676,510.36
211.8000,-40.117,512.039
211.7000,-39.8713,513.752
211.6000,-39.4731,515.498
211.5000,-38.9356,517.265
211.4000,-38.7123,519.04
211.3000,-38.286,520.838
211.2000,-38.0638,522.653
211.1000,-37.7528,524.507
211.0000,-37.3856,526.393
210.9000,-37.1321,528.302
210.8000,-37.3432,530.222
210.7000,-37.6523,532.163
210.6000,-37.9741,534.141
210.5000,-38.2068,536.162
210.4000,-38.1684,538.223
210.3000,-38.0067,540.325
210.2000,-38.0785,542.446
210.1000,-37.9774,544.6
210.0000,-37.5797,546.79
209.9000,-37.6404,549.012
209.8000,-37.9113,551.278
209.7000,-37.8111,553.602
209.6000,-37.7764,555.973
209.5000,-37.7968,558.382
209.4000,-38.4049,560.804
209.3000,-39.3436,563.246
209.2000,-39.5858,565.751
209.1000,-39.4406,568.321
209.0000,-39.3393,570.936
208.9000,-39.0633,573.604
208.8000,-39.0424,576.307
208.7000,-39.3181,579.051
208.6000,-39.46,581.853
208.5000,-39.508,584.72
208.4000,-39.3859,587.645
208.3000,-39.8261,590.605
208.2000,-39.879,593.629
208.1000,-40.1956,596.688
208.0000,-40.2513,599.808
207.9000,-39.9052,603
207.8000,-39.0101,606.257
207.7000,-38.1462,609.569
207.6000,-37.3465,612.94
207.5000,-36.5537,616.37
207.4000,-36.6994,619.827
207.3000,-37.351,623.309
207.2000,-37.3584,626.863
207.1000,-37.1267,630.469
207.0000,-36.1854,634.149
206.9000,-35.6467,637.865
206.8000,-35.8479,641.602
206.7000,-35.6813,645.406
206.6000,-34.8359,649.29
206.5000,-34.764,653.21
206.4000,-34.0478,657.224
206.3000,-33.5928,661.281
206.2000,-32.9993,665.413
206.1000,-32.7847,669.583
206.0000,-32.2916,673.823
205.9000,-32.3686,678.083
205.8000,-32.1555,682.392
205.7000,-32.117,686.726
205.6000,-32.5454,691.105
205.5000,-32.8259,695.527
205.4000,-33.4005,699.982
205.3000,-34.182,704.465
205.2000,-33.2604,709.026
205.1000,-32.1919,713.63
205.0000,-31.9388,718.204
204.9000,-30.0438,722.834
204.8000,-26.2672,727.526
204.7000,-24.2532,732.169
204.6000,-22.3916,736.814
204.5000,-21.555,741.424
204.4000,-21.3392,746.016
204.3000,-21.6246,750.568
204.2000,-22.9537,755.084
204.1000,-24.3265,759.58
204.0000,-24.485,764.08
203.9000,-27.3381,768.467
203.8000,-26.5808,772.942
203.7000,-21.8735,777.498
203.6000,-15.3144,782.084
203.5000,-10.4732,786.556
203.4000,-5.03651,790.995
203.3000,-1.78581,795.324
203.2000,2.33101,799.637
203.1000,2.31542,803.732
203.0000,-1.5838,807.643
202.9000,-3.27956,811.556
202.8000,-2.53776,815.453
202.7000,-0.991409,819.308
202.6000,3.01746,823.154
202.5000,5.61695,826.863
202.4000,8.84714,830.552
202.3000,15.2676,834.276
202.2000,24.5934,837.969
202.1000,25.0655,841.329
202.0000,18.9744,844.399
201.9000,15.919,847.452
201.8000,16.3588,850.553
201.7000,12.8269,852.72
201.6000,9.28094,836.303
201.5000,4.29661,825.01
201.4000,5.57896,829.296
201.3000,8.67615,834.92
201.2000,8.20441,840.456
201.1000,3.30497,845.822
201.0000,-9.19095,850.906
200.9000,-19.4844,855.998
200.8000,-26.3152,861.1
200.7000,-35.5971,866.05
200.6000,-47.8406,870.822
200.5000,-56.5256,875.685
200.4000,-53.0263,880.749
200.3000,-51.3809,885.681
200.2000,-60.4143,890.294
200.1000,-67.945,894.851
200.0000,-67.0341,903.99
199.9000,-67.7323,932.662
199.8000,-68.9802,942.727
199.7000,-67.512,944.932
199.6000,-67.4911,946.365
199.5000,-70.103,947.644
199.4000,-60.0175,949.203
199.3000,-44.7553,950.875
199.2000,-28.9916,952.431
199.1000,-13.0698,953.853
199.0000,3.43427,955.449
198.9000,16.3735,956.736
198.8000,21.5976,957.674
198.7000,21.868,958.559
198.6000,24.0645,959.346
198.5000,34.7874,960.295
198.4000,43.6975,961.176
198.3000,50.159,961.907
198.2000,54.0516,962.28
198.1000,52.7192,962.697
198.0000,49.0657,962.937
197.9000,47.8333,963.352
197.8000,49.3483,963.695
197.7000,44.5323,948.168
197.6000,38.1828,935.07
197.5000,32.0246,937.959
197.4000,23.8559,941.845
197.3000,15.6723,945.688
197.2000,10.6141,949.673
197.1000,11.1462,953.817
197.0000,14.3899,957.988
196.9000,15.0173,962.141
196.8000,15.2941,966.186
196.7000,11.0018,970.052
196.6000,4.41017,974.018
196.5000,0.421494,978.011
196.4000,4.21242,982.184
196.3000,8.24064,986.348
196.2000,14.4878,990.483
196.1000,17.5832,996.522
196.0000,17.2992,1022.48
195.9000,13.4386,1030.82
195.8000,8.06501,1031.1
195.7000,6.1438,1031.06
195.6000,5.90081,1031.04
195.5000,7.60856,1031.09
195.4000,5.13254,1031.01
195.3000,1.08548,1030.88
195.2000,-5.06801,1030.69
195.1000,-9.93373,1030.53
195.0000,-7.36805,1030.61
194.9000,-3.48141,1030.73
194.8000,-2.95183,1030.74
194.7000,1.90649,1030.88
194.6000,2.60004,1030.9
194.5000,2.6441,1030.9
194.4000,5.66747,1031
194.3000,10.6323,1031.15
194.2000,17.8869,1031.37
194.1000,31.9618,1031.79
194.0000,38.5019,1031.86
193.9000,40.677,1031.62
193.8000,35.482,1030.89
193.7000,33.2353,1029.92
193.6000,32.0954,1028.61
193.5000,37.07,1027.29
193.4000,34.8576,1025.74
193.3000,29.8775,1023.85
193.2000,28.6561,1021.98
193.1000,30.1493,1020.16
193.0000,29.7209,1018.25
192.9000,31.327,1016.33
192.8000,27.4056,1014.21
192.7000,23.4641,1012.15
192.6000,22.7397,1010.09
192.5000,23.137,1008.06
192.4000,20.1437,1005.82
192.3000,20.5114,1003.95
192.2000,23.9662,1002.43
192.1000,34.6336,1001.28
192.0000,46.3807,1000.71
191.9000,56.0179,1000.32
191.8000,59.806,999.819
191.7000,58.5821,999.307
191.6000,57.8539,999.074
191.5000,60.909,998.998
191.4000,64.5813,998.936
191.3000,62.8781,998.843
191.2000,61.8238,998.716
191.1000,68.5763,998.86
191.0000,77.0511,999.09
190.9000,76.6975,999.076
190.8000,74.1451,999.012
190.7000,71.5286,999.029
190.6000,73.327,999.014
190.5000,72.0581,999.055
190.4000,59.6946,998.719
190.3000,46.275,998.24
190.2000,32.8755,997.811
190.1000,19.2487,997.479
190.0000,11.5689,997.141

##### Extended Information
[Comments]
Sample name,DL121 45C Dark
Comment
User,JM
Division
Company,UT Southwestern Medical Center at Dallas

[Detailed Information]
Creation date,5/1/2023 2:04 PM

Data array type,Linear data array * 2
Horizontal axis,Wavelength [nm]
Vertical axis(1),CD [mdeg]
Vertical axis(2),HT [V]
Start,250 nm
End,190 nm
Data interval,0.1 nm
Data points,601     

[Measurement Information]
Instrument name,Jasco CD
Model name,J-815
Serial No.,B064061168

Accessory,CDF-426S
Accessory S/N,A00861183
  Temperature,44.97 C
  Control sonsor,Holder
  Monitor sensor,Holder
  Start Mode,Keep target temperature +/-0.10 deg C while 5 seconds
  Cell length,10 mm

Measurement date,5/1/2023 2:04 PM

Photometric mode,CD, HT
Measure range,250 - 190 nm
Data pitch,0.1 nm
Sensitivity,Standard
D.I.T.,1 sec
Bandwidth,1.00 nm
Start mode,Immediately
Scanning speed,100 nm/min
Baseline correction,None
Shutter control,Manual
CD detector,PMT
PMT voltage,Auto
No. of cycle,2/3

Concentration,0.7 (w/v)%
Solvent,50mM nap04 ph 6.5 100mM NaF

