TITLE,DL121 42.5C Lit
DATA TYPE,
ORIGIN,JASCO
OWNER,
DATE,23/05/01
TIME,13:56:17
SPECTROMETER/DATA SYSTEM,
LOCALE,1033
RESOLUTION,
DELTAX,-0.1
XUNITS,NANOMETERS
YUNITS,CD [mdeg]
Y2UNITS,HT [V]
FIRSTX,  250.0000
LASTX,  190.0000
NPOINTS,     601
FIRSTY,    -0.47667
MAXY,   103.05096
MINY,   -61.35352
XYDATA
250.0000,-0.476669,289.91
249.9000,-0.480255,289.958
249.8000,-0.435425,290.014
249.7000,-0.393887,290.069
249.6000,-0.396579,290.119
249.5000,-0.428281,290.173
249.4000,-0.478967,290.227
249.3000,-0.515182,290.285
249.2000,-0.534338,290.344
249.1000,-0.56059,290.397
249.0000,-0.593958,290.449
248.9000,-0.671374,290.501
248.8000,-0.73342,290.559
248.7000,-0.779327,290.623
248.6000,-0.789136,290.684
248.5000,-0.790878,290.742
248.4000,-0.750986,290.798
248.3000,-0.697998,290.86
248.2000,-0.651422,290.924
248.1000,-0.670721,290.981
248.0000,-0.660001,291.042
247.9000,-0.663235,291.103
247.8000,-0.629062,291.162
247.7000,-0.556149,291.223
247.6000,-0.514468,291.288
247.5000,-0.495828,291.351
247.4000,-0.483646,291.418
247.3000,-0.487274,291.487
247.2000,-0.473669,291.553
247.1000,-0.478522,291.544
247.0000,-0.554672,288.931
246.9000,-0.557947,286.522
246.8000,-0.547293,284.189
246.7000,-0.542233,281.853
246.6000,-0.562985,281.383
246.5000,-0.635794,281.447
246.4000,-0.692136,281.536
246.3000,-0.748126,281.628
246.2000,-0.812793,281.717
246.1000,-0.882687,281.806
246.0000,-0.94592,281.897
245.9000,-0.982147,281.991
245.8000,-1.01622,282.091
245.7000,-1.02375,282.19
245.6000,-1.05144,282.285
245.5000,-1.09969,282.377
245.4000,-1.14227,283.377
245.3000,-1.16261,286.176
245.2000,-1.26412,288.704
245.1000,-1.38087,291.216
245.0000,-1.50641,293.314
244.9000,-1.59609,293.585
244.8000,-1.63348,293.688
244.7000,-1.62353,293.784
244.6000,-1.63316,293.884
244.5000,-1.6158,293.993
244.4000,-1.68087,294.1
244.3000,-1.73258,294.207
244.2000,-1.76825,294.313
244.1000,-1.76787,294.422
244.0000,-1.8111,294.534
243.9000,-1.82416,294.652
243.8000,-1.8334,294.776
243.7000,-1.8488,294.903
243.6000,-1.8994,295.028
243.5000,-1.9275,295.153
243.4000,-1.95365,295.279
243.3000,-2.00106,295.407
243.2000,-2.07304,295.535
243.1000,-2.15341,295.665
243.0000,-2.217,295.803
242.9000,-2.29607,295.937
242.8000,-2.34033,296.075
242.7000,-2.36275,296.218
242.6000,-2.42771,296.363
242.5000,-2.49405,296.51
242.4000,-2.57453,296.659
242.3000,-2.66019,296.81
242.2000,-2.75154,296.96
242.1000,-2.83746,297.107
242.0000,-2.91186,297.255
241.9000,-2.90633,297.412
241.8000,-2.90883,297.573
241.7000,-2.90405,297.736
241.6000,-2.90902,297.903
241.5000,-2.87904,298.077
241.4000,-2.89359,298.251
241.3000,-2.9588,298.426
241.2000,-3.0286,298.605
241.1000,-3.1182,298.786
241.0000,-3.19789,298.968
240.9000,-3.23384,299.159
240.8000,-3.33071,299.351
240.7000,-3.40959,299.544
240.6000,-3.42869,299.745
240.5000,-3.46613,299.953
240.4000,-3.48011,300.167
240.3000,-3.51016,300.384
240.2000,-3.58542,300.598
240.1000,-3.64799,300.816
240.0000,-3.72408,301.041
239.9000,-3.77066,301.273
239.8000,-3.85489,301.508
239.7000,-3.96231,301.747
239.6000,-4.00087,301.992
239.5000,-4.0458,302.243
239.4000,-4.06014,302.499
239.3000,-4.11281,302.76
239.2000,-4.19412,303.018
239.1000,-4.24774,303.281
239.0000,-4.28318,303.547
238.9000,-4.33706,303.815
238.8000,-4.40501,304.089
238.7000,-4.50929,304.369
238.6000,-4.64366,304.658
238.5000,-4.73856,304.955
238.4000,-4.8243,305.256
238.3000,-4.94064,305.558
238.2000,-5.07249,305.863
238.1000,-5.25083,306.169
238.0000,-5.39231,306.482
237.9000,-5.52769,306.799
237.8000,-5.66574,307.121
237.7000,-5.79371,307.45
237.6000,-5.92926,307.786
237.5000,-6.00926,308.129
237.4000,-6.06813,308.479
237.3000,-6.14052,308.834
237.2000,-6.21855,309.193
237.1000,-6.26361,309.558
237.0000,-6.30316,309.923
236.9000,-6.35181,310.292
236.8000,-6.46563,310.669
236.7000,-6.55021,311.053
236.6000,-6.61556,311.445
236.5000,-6.70538,311.842
236.4000,-6.78037,312.247
236.3000,-6.88338,312.662
236.2000,-7.03959,313.089
236.1000,-7.21165,313.519
236.0000,-7.3954,313.949
235.9000,-7.59747,314.383
235.8000,-7.79405,314.826
235.7000,-8.00867,315.271
235.6000,-8.20309,315.726
235.5000,-8.37323,316.194
235.4000,-8.57975,316.666
235.3000,-8.78786,317.142
235.2000,-8.98896,317.624
235.1000,-9.23997,318.112
235.0000,-9.51654,318.609
234.9000,-9.70166,319.118
234.8000,-9.80165,319.636
234.7000,-9.92547,320.155
234.6000,-10.0271,320.676
234.5000,-10.1115,321.199
234.4000,-10.1501,321.729
234.3000,-10.1497,322.269
234.2000,-10.1932,322.823
234.1000,-10.3193,323.381
234.0000,-10.4921,323.946
233.9000,-10.7023,324.514
233.8000,-10.9325,325.087
233.7000,-11.1329,325.672
233.6000,-11.2713,326.274
233.5000,-11.361,326.883
233.4000,-11.448,327.493
233.3000,-11.5476,328.1
233.2000,-11.6802,328.71
233.1000,-11.8425,329.33
233.0000,-12.0033,329.962
232.9000,-12.2173,330.597
232.8000,-12.3983,331.242
232.7000,-12.6507,331.889
232.6000,-12.8799,332.537
232.5000,-13.0593,333.191
232.4000,-13.1604,333.858
232.3000,-13.2948,334.534
232.2000,-13.3599,335.214
232.1000,-13.4768,335.889
232.0000,-13.5687,336.563
231.9000,-13.7048,337.242
231.8000,-13.91,337.929
231.7000,-14.0787,338.625
231.6000,-14.3376,339.328
231.5000,-14.5874,340.031
231.4000,-14.8234,340.735
231.3000,-15.017,341.44
231.2000,-15.2487,342.145
231.1000,-15.4673,342.858
231.0000,-15.6809,343.577
230.9000,-15.8569,344.303
230.8000,-16.0284,345.029
230.7000,-16.228,345.756
230.6000,-16.3687,346.483
230.5000,-16.497,347.217
230.4000,-16.6473,347.961
230.3000,-16.8749,348.701
230.2000,-17.0423,349.432
230.1000,-17.1767,350.162
230.0000,-17.3179,350.343
229.9000,-17.0474,342.43
229.8000,-16.5287,334.495
229.7000,-15.8285,329.269
229.6000,-15.0927,324.591
229.5000,-14.5889,324.565
229.4000,-14.4151,325.304
229.3000,-14.405,326.074
229.2000,-14.4627,326.841
229.1000,-14.637,327.611
229.0000,-14.7879,328.386
228.9000,-15.0255,329.159
228.8000,-15.3415,329.929
228.7000,-15.6398,330.701
228.6000,-15.8217,331.479
228.5000,-15.9889,332.268
228.4000,-16.2499,333.053
228.3000,-16.6272,336.197
228.2000,-17.4034,347.645
228.1000,-18.3774,355.305
228.0000,-19.5396,361.955
227.9000,-20.691,366.733
227.8000,-21.4421,367.752
227.7000,-22.0257,368.504
227.6000,-22.6266,369.236
227.5000,-23.1908,369.963
227.4000,-23.6291,370.681
227.3000,-23.8814,371.402
227.2000,-23.9834,372.13
227.1000,-24.1455,372.854
227.0000,-24.3885,373.574
226.9000,-24.8195,374.288
226.8000,-25.1976,374.994
226.7000,-25.4882,375.695
226.6000,-25.8236,376.397
226.5000,-26.2208,377.107
226.4000,-26.5792,377.824
226.3000,-26.8224,378.542
226.2000,-27.0965,379.259
226.1000,-27.3866,379.975
226.0000,-27.5793,380.694
225.9000,-27.6314,381.42
225.8000,-27.6852,382.146
225.7000,-27.8522,382.876
225.6000,-28.1346,383.598
225.5000,-28.4452,384.308
225.4000,-28.7067,385.011
225.3000,-28.882,385.716
225.2000,-28.873,386.424
225.1000,-28.8822,387.133
225.0000,-28.9743,387.842
224.9000,-29.0924,388.542
224.8000,-29.2356,389.233
224.7000,-29.5141,389.915
224.6000,-29.8032,390.601
224.5000,-30.0669,391.286
224.4000,-30.2853,391.975
224.3000,-30.5114,392.662
224.2000,-30.7279,393.347
224.1000,-30.9511,394.029
224.0000,-31.2405,394.704
223.9000,-31.542,395.377
223.8000,-31.8516,396.056
223.7000,-32.0998,396.74
223.6000,-32.427,397.423
223.5000,-33.0082,398.099
223.4000,-33.5966,398.772
223.3000,-33.9871,399.452
223.2000,-34.2043,400.136
223.1000,-34.2961,400.822
223.0000,-34.3535,401.506
222.9000,-34.3483,402.188
222.8000,-34.3904,402.863
222.7000,-34.4904,403.531
222.6000,-34.6055,404.205
222.5000,-34.7185,404.882
222.4000,-34.712,405.567
222.3000,-34.6977,406.249
222.2000,-34.7568,406.925
222.1000,-34.9167,407.593
222.0000,-35.1374,408.265
221.9000,-35.1774,408.942
221.8000,-35.1376,409.621
221.7000,-34.9854,410.301
221.6000,-34.9566,410.979
221.5000,-35.1474,411.651
221.4000,-35.3712,412.323
221.3000,-35.6974,412.992
221.2000,-36.1325,413.659
221.1000,-36.4904,414.331
221.0000,-36.7468,415.009
220.9000,-37.0563,415.683
220.8000,-37.3001,416.359
220.7000,-37.5452,417.032
220.6000,-37.5759,417.715
220.5000,-37.6155,418.403
220.4000,-37.6733,419.093
220.3000,-37.7195,419.785
220.2000,-37.7793,420.473
220.1000,-37.8023,421.168
220.0000,-37.9829,421.861
219.9000,-38.0597,422.564
219.8000,-38.0762,423.27
219.7000,-38.0585,423.981
219.6000,-37.9885,424.697
219.5000,-37.8412,425.415
219.4000,-37.6406,426.138
219.3000,-37.5273,426.859
219.2000,-37.4602,427.579
219.1000,-37.6943,428.29
219.0000,-38.0343,429.005
218.9000,-38.4927,429.73
218.8000,-38.7515,430.465
218.7000,-39.0507,431.191
218.6000,-39.3459,431.915
218.5000,-39.6187,432.642
218.4000,-39.9073,433.37
218.3000,-40.0297,434.109
218.2000,-40.1997,434.844
218.1000,-40.1623,435.588
218.0000,-40.2311,436.335
217.9000,-40.3086,437.085
217.8000,-40.535,437.834
217.7000,-40.7462,438.585
217.6000,-40.8723,439.35
217.5000,-40.8871,440.122
217.4000,-40.805,440.907
217.3000,-40.8606,441.69
217.2000,-41.0504,442.471
217.1000,-41.082,443.262
217.0000,-41.0393,444.071
216.9000,-41.1156,444.89
216.8000,-41.2763,445.712
216.7000,-41.503,446.543
216.6000,-41.5877,447.396
216.5000,-41.6336,448.269
216.4000,-41.8847,449.145
216.3000,-42.0067,450.033
216.2000,-42.0979,450.925
216.1000,-42.0894,451.837
216.0000,-42.2311,452.757
215.9000,-42.4037,453.688
215.8000,-42.5176,454.633
215.7000,-42.4812,455.588
215.6000,-42.2927,456.548
215.5000,-41.9362,457.53
215.4000,-41.7954,458.521
215.3000,-41.5327,459.53
215.2000,-41.356,460.545
215.1000,-40.9327,461.574
215.0000,-40.6343,462.598
214.9000,-40.3609,463.625
214.8000,-40.124,464.662
214.7000,-40.1217,465.706
214.6000,-39.8854,466.777
214.5000,-39.7666,467.863
214.4000,-39.7718,468.961
214.3000,-39.6663,470.077
214.2000,-39.6472,471.205
214.1000,-39.7078,472.351
214.0000,-39.8548,473.513
213.9000,-40.2185,474.686
213.8000,-40.504,475.874
213.7000,-40.6846,477.082
213.6000,-40.6868,478.313
213.5000,-40.4769,479.571
213.4000,-40.3689,480.849
213.3000,-40.2709,482.151
213.2000,-40.4416,483.462
213.1000,-40.3015,484.799
213.0000,-40.0515,486.155
212.9000,-39.7185,485.426
212.8000,-38.5696,472.168
212.7000,-36.7899,450.974
212.6000,-34.776,426.073
212.5000,-32.5303,399.284
212.4000,-30.1594,381.336
212.3000,-28.1217,380.947
212.2000,-26.9422,382.359
212.1000,-26.1772,383.937
212.0000,-25.7719,385.54
211.9000,-25.7805,387.149
211.8000,-25.8733,388.78
211.7000,-26.1406,390.43
211.6000,-26.5141,392.095
211.5000,-26.7705,393.789
211.4000,-27.2191,395.505
211.3000,-27.8035,397.235
211.2000,-28.5793,404.678
211.1000,-29.9345,424.475
211.0000,-31.5387,450.457
210.9000,-33.4372,479.403
210.8000,-35.3578,509.901
210.7000,-37.0808,522.763
210.6000,-38.4242,525.445
210.5000,-39.2886,527.413
210.4000,-40.2734,529.336
210.3000,-40.8732,531.296
210.2000,-41.136,533.302
210.1000,-41.4884,535.336
210.0000,-41.4666,537.416
209.9000,-41.6269,539.54
209.8000,-41.9626,541.698
209.7000,-41.8871,543.895
209.6000,-41.5046,546.149
209.5000,-41.2535,548.439
209.4000,-41.1264,550.756
209.3000,-41.3047,553.103
209.2000,-41.5622,555.5
209.1000,-42.2499,557.937
209.0000,-42.7612,560.424
208.9000,-42.5121,562.979
208.8000,-42.1372,565.571
208.7000,-41.3685,568.219
208.6000,-40.8256,570.914
208.5000,-40.6177,573.653
208.4000,-40.1572,576.45
208.3000,-39.7568,579.286
208.2000,-39.1857,582.169
208.1000,-38.425,585.099
208.0000,-38.1401,588.072
207.9000,-38.1439,591.08
207.8000,-38.0637,594.147
207.7000,-37.5111,597.286
207.6000,-36.6317,600.48
207.5000,-36.5024,603.695
207.4000,-35.7839,606.974
207.3000,-34.7028,610.312
207.2000,-34.3431,613.681
207.1000,-34.1484,617.105
207.0000,-33.7251,620.583
206.9000,-33.4918,624.095
206.8000,-33.0349,627.665
206.7000,-32.2827,631.301
206.6000,-32.5151,634.964
206.5000,-32.3129,638.703
206.4000,-31.7923,642.522
206.3000,-31.0816,646.413
206.2000,-30.4899,650.358
206.1000,-29.4412,654.367
206.0000,-29.6607,658.386
205.9000,-29.8503,662.456
205.8000,-29.1071,666.607
205.7000,-28.5347,670.791
205.6000,-28.6093,675.009
205.5000,-27.0138,679.317
205.4000,-25.0697,683.667
205.3000,-24.2498,688.018
205.2000,-24.0451,692.391
205.1000,-24.5964,696.773
205.0000,-25.3609,701.179
204.9000,-24.0806,705.67
204.8000,-24.3584,710.135
204.7000,-24.455,714.615
204.6000,-25.2131,719.091
204.5000,-25.6628,723.578
204.4000,-25.6077,728.118
204.3000,-26.0719,732.671
204.2000,-27.7651,737.198
204.1000,-30.189,741.693
204.0000,-30.4539,746.251
203.9000,-32.0363,750.743
203.8000,-32.5203,755.256
203.7000,-29.6992,759.871
203.6000,-22.5982,764.589
203.5000,-15.1659,769.284
203.4000,-6.67957,773.974
203.3000,-1.555,778.505
203.2000,-3.399,782.761
203.1000,-6.03714,786.941
203.0000,-7.16398,791.098
202.9000,-7.89807,795.224
202.8000,-9.28321,799.249
202.7000,-11.2261,803.139
202.6000,-11.2638,807.008
202.5000,-6.38603,810.922
202.4000,-0.690924,814.775
202.3000,1.93102,818.459
202.2000,4.31837,822.024
202.1000,0.146796,825.249
202.0000,-6.43006,828.268
201.9000,-15.7425,831.069
201.8000,-22.9377,833.823
201.7000,-28.5797,836.48
201.6000,-27.2055,839.221
201.5000,-26.4963,841.808
201.4000,-26.0867,844.201
201.3000,-25.5911,846.488
201.2000,-19.4675,848.704
201.1000,-9.86101,850.861
201.0000,2.40076,852.969
200.9000,14.3058,854.924
200.8000,22.3925,856.645
200.7000,24.8168,858.05
200.6000,23.9595,859.241
200.5000,20.468,860.162
200.4000,25.5157,861.253
200.3000,31.6033,862.256
200.2000,39.1326,863.19
200.1000,41.2255,863.853
200.0000,37.3216,864.2
199.9000,32.6346,864.477
199.8000,32.2313,864.694
199.7000,40.4197,865.071
199.6000,40.9465,865.107
199.5000,36.3374,864.82
199.4000,24.3494,864.488
199.3000,13.8503,864.081
199.2000,5.99049,863.679
199.1000,1.5236,862.036
199.0000,-1.56305,860.714
198.9000,2.91827,859.49
198.8000,8.37177,858.721
198.7000,12.4822,857.739
198.6000,10.9066,857.124
198.5000,7.70553,855.079
198.4000,6.86433,853.09
198.3000,11.5057,851.525
198.2000,19.2695,841.786
198.1000,21.513,817.034
198.0000,18.8739,817.028
197.9000,15.9315,824.177
197.8000,9.33131,831.172
197.7000,1.53192,838.125
197.6000,-7.53665,844.982
197.5000,-12.2845,852.217
197.4000,-16.5714,860.288
197.3000,-23.204,867.821
197.2000,-30.9266,875.658
197.1000,-35.1059,883.754
197.0000,-45.5767,890.69
196.9000,-51.4074,898.268
196.8000,-52.3337,906.627
196.7000,-51.6086,915.954
196.6000,-53.4979,923.655
196.5000,-61.3535,948.804
196.4000,-59.4764,974.052
196.3000,-58.3684,976.216
196.2000,-53.3937,975.999
196.1000,-32.3151,976.318
196.0000,-9.29275,976.78
195.9000,9.35473,977.36
195.8000,19.475,968.427
195.7000,29.6217,933.609
195.6000,38.9822,886.599
195.5000,44.2358,833.904
195.4000,47.5788,778.447
195.3000,53.6971,721.752
195.2000,58.4614,669.517
195.1000,57.8922,649.84
195.0000,58.7458,650.094
194.9000,62.7614,652.735
194.8000,69.2804,655.774
194.7000,60.2266,658.529
194.6000,58.0312,660.827
194.5000,49.6126,659.567
194.4000,36.3253,656.69
194.3000,23.1776,653.819
194.2000,9.63377,650.975
194.1000,2.81904,667.207
194.0000,2.52262,705.266
193.9000,10.3395,753.012
193.8000,18.0562,804.997
193.7000,24.7021,859.393
193.6000,27.3988,915.1
193.5000,28.658,957.056
193.4000,31.8177,965.474
193.3000,32.0123,962.169
193.2000,31.6271,958.08
193.1000,32.009,953.735
193.0000,38.7305,949.446
192.9000,42.9063,946.941
192.8000,53.907,947.941
192.7000,55.5803,948.862
192.6000,58.238,949.718
192.5000,62.6576,950.85
192.4000,65.7015,951.841
192.3000,60.8075,952.559
192.2000,55.8108,952.801
192.1000,53.0134,953.419
192.0000,55.0604,953.967
191.9000,61.6663,954.57
191.8000,65.228,955.251
191.7000,68.8563,956.011
191.6000,75.9644,956.646
191.5000,77.0914,957.032
191.4000,76.2483,957.5
191.3000,77.9718,957.985
191.2000,77.8958,958.532
191.1000,73.5428,958.928
191.0000,77.6025,959.787
190.9000,84.697,960.806
190.8000,89.8414,961.503
190.7000,96.4142,962.465
190.6000,103.051,963.306
190.5000,101.731,964.135
190.4000,95.9268,964.523
190.3000,88.2003,964.745
190.2000,80.307,964.887
190.1000,70.9654,964.972
190.0000,59.4595,964.79

##### Extended Information
[Comments]
Sample name,DL121 42.5C Lit
Comment
User,JM
Division
Company,UT Southwestern Medical Center at Dallas

[Detailed Information]
Creation date,5/1/2023 1:56 PM

Data array type,Linear data array * 2
Horizontal axis,Wavelength [nm]
Vertical axis(1),CD [mdeg]
Vertical axis(2),HT [V]
Start,250 nm
End,190 nm
Data interval,0.1 nm
Data points,601     

[Measurement Information]
Instrument name,Jasco CD
Model name,J-815
Serial No.,B064061168

Accessory,CDF-426S
Accessory S/N,A00861183
  Temperature,42.48 C
  Control sonsor,Holder
  Monitor sensor,Holder
  Start Mode,Keep target temperature +/-0.10 deg C while 5 seconds
  Cell length,10 mm

Measurement date,5/1/2023 1:56 PM

Photometric mode,CD, HT
Measure range,250 - 190 nm
Data pitch,0.1 nm
Sensitivity,Standard
D.I.T.,1 sec
Bandwidth,1.00 nm
Start mode,Immediately
Scanning speed,100 nm/min
Baseline correction,None
Shutter control,Manual
CD detector,PMT
PMT voltage,Auto
No. of cycle,3/3

Concentration,0.7 (w/v)%
Solvent,50mM nap04 ph 6.5 100mM NaF

