TITLE,DL121 15C Dark
DATA TYPE,
ORIGIN,JASCO
OWNER,
DATE,23/05/01
TIME,12:01:37
SPECTROMETER/DATA SYSTEM,
LOCALE,1033
RESOLUTION,
DELTAX,-0.1
XUNITS,NANOMETERS
YUNITS,CD [mdeg]
Y2UNITS,HT [V]
FIRSTX,  250.0000
LASTX,  190.0000
NPOINTS,     601
FIRSTY,    -0.66376
MAXY,    62.15815
MINY,   -53.44344
XYDATA
250.0000,-0.66376,285.613
249.9000,-0.730533,285.653
249.8000,-0.784393,285.694
249.7000,-0.806149,285.737
249.6000,-0.82189,285.776
249.5000,-0.772672,285.823
249.4000,-0.732086,285.868
249.3000,-0.709726,285.917
249.2000,-0.723953,285.967
249.1000,-0.711884,286.016
249.0000,-0.727515,286.061
248.9000,-0.745993,286.107
248.8000,-0.726605,286.16
248.7000,-0.706311,286.214
248.6000,-0.732355,286.271
248.5000,-0.76911,286.323
248.4000,-0.798917,286.37
248.3000,-0.804092,286.422
248.2000,-0.850388,286.474
248.1000,-0.856384,286.528
248.0000,-0.851401,286.585
247.9000,-0.865936,286.638
247.8000,-0.937656,286.688
247.7000,-0.998444,286.738
247.6000,-1.03955,286.789
247.5000,-1.0656,286.842
247.4000,-1.0552,286.899
247.3000,-1.05943,286.96
247.2000,-1.07534,287.017
247.1000,-1.12004,287.073
247.0000,-1.18411,287.13
246.9000,-1.19225,287.189
246.8000,-1.15457,287.255
246.7000,-1.1444,287.319
246.6000,-1.11728,287.377
246.5000,-1.08183,287.442
246.4000,-1.07518,287.513
246.3000,-1.0785,287.581
246.2000,-1.09012,287.649
246.1000,-1.1151,287.72
246.0000,-1.14251,287.792
245.9000,-1.15174,287.862
245.8000,-1.16006,287.936
245.7000,-1.16423,288.015
245.6000,-1.17515,288.095
245.5000,-1.23496,288.169
245.4000,-1.30281,288.243
245.3000,-1.32868,288.323
245.2000,-1.37583,288.404
245.1000,-1.44496,288.489
245.0000,-1.53423,288.578
244.9000,-1.62765,288.667
244.8000,-1.70564,288.75
244.7000,-1.74988,288.836
244.6000,-1.77377,288.929
244.5000,-1.78981,289.026
244.4000,-1.80691,289.118
244.3000,-1.82484,289.213
244.2000,-1.84671,289.31
244.1000,-1.86978,289.406
244.0000,-1.93684,289.497
243.9000,-1.97539,289.594
243.8000,-2.01065,289.701
243.7000,-2.08482,289.806
243.6000,-2.17686,289.908
243.5000,-2.25422,290.01
243.4000,-2.28735,290.113
243.3000,-2.28777,290.218
243.2000,-2.30785,290.329
243.1000,-2.37667,290.44
243.0000,-2.4733,290.547
242.9000,-2.60116,290.652
242.8000,-2.66251,290.769
242.7000,-2.73149,290.891
242.6000,-2.81823,291.014
242.5000,-2.92316,291.139
242.4000,-3.03413,291.266
242.3000,-3.12768,291.398
242.2000,-3.18708,291.53
242.1000,-3.24568,291.662
242.0000,-3.27972,291.8
241.9000,-3.35275,291.939
241.8000,-3.48021,292.077
241.7000,-3.59962,292.222
241.6000,-3.70457,292.37
241.5000,-3.76889,292.522
241.4000,-3.81539,292.681
241.3000,-3.85723,292.844
241.2000,-3.93134,293.01
241.1000,-3.96065,293.177
241.0000,-3.97755,293.349
240.9000,-4.018,293.525
240.8000,-4.08798,293.702
240.7000,-4.14398,293.883
240.6000,-4.22205,294.063
240.5000,-4.30829,294.244
240.4000,-4.34775,294.431
240.3000,-4.42456,294.625
240.2000,-4.43303,294.827
240.1000,-4.46117,295.03
240.0000,-4.53283,295.237
239.9000,-4.62827,295.444
239.8000,-4.7471,295.656
239.7000,-4.87808,295.873
239.6000,-5.01995,296.098
239.5000,-5.14601,296.327
239.4000,-5.29478,296.556
239.3000,-5.46913,296.785
239.2000,-5.57051,297.02
239.1000,-5.68553,297.26
239.0000,-5.84712,297.506
238.9000,-5.97793,297.764
238.8000,-6.11257,298.028
238.7000,-6.28368,298.29
238.6000,-6.421,298.555
238.5000,-6.55419,298.823
238.4000,-6.67629,299.1
238.3000,-6.83314,299.382
238.2000,-7.03192,299.669
238.1000,-7.15985,299.963
238.0000,-7.2717,300.258
237.9000,-7.37928,300.555
237.8000,-7.52549,300.858
237.7000,-7.72228,301.172
237.6000,-7.89424,301.495
237.5000,-8.08969,301.822
237.4000,-8.25234,302.152
237.3000,-8.39687,302.486
237.2000,-8.57387,302.825
237.1000,-8.75782,303.175
237.0000,-8.88514,303.533
236.9000,-9.03897,303.9
236.8000,-9.1939,304.277
236.7000,-9.36849,304.656
236.6000,-9.50482,305.039
236.5000,-9.65551,305.424
236.4000,-9.83943,305.815
236.3000,-10.0238,306.215
236.2000,-10.2169,306.622
236.1000,-10.3552,307.035
236.0000,-10.4898,307.451
235.9000,-10.6007,307.874
235.8000,-10.7129,308.307
235.7000,-10.8212,308.742
235.6000,-10.9253,309.184
235.5000,-10.9981,309.635
235.4000,-11.0929,310.093
235.3000,-11.1968,310.557
235.2000,-11.3379,311.019
235.1000,-11.5184,311.485
235.0000,-11.7115,311.955
234.9000,-11.8934,312.438
234.8000,-12.0688,312.935
234.7000,-12.292,313.437
234.6000,-12.555,313.944
234.5000,-12.8364,314.457
234.4000,-13.094,314.975
234.3000,-13.336,315.501
234.2000,-13.6029,316.036
234.1000,-13.8855,316.581
234.0000,-14.1638,317.137
233.9000,-14.4667,317.7
233.8000,-14.7752,318.26
233.7000,-15.094,318.826
233.6000,-15.4264,319.399
233.5000,-15.6622,319.985
233.4000,-15.8773,320.583
233.3000,-16.1117,321.186
233.2000,-16.3059,321.794
233.1000,-16.5493,322.399
233.0000,-16.7969,323.008
232.9000,-17.0258,323.626
232.8000,-17.2216,324.25
232.7000,-17.4859,324.881
232.6000,-17.7822,325.513
232.5000,-17.9813,326.153
232.4000,-18.1434,326.797
232.3000,-18.3232,327.441
232.2000,-18.5396,328.086
232.1000,-18.7566,328.743
232.0000,-19.0137,329.404
231.9000,-19.3016,330.067
231.8000,-19.6081,330.731
231.7000,-19.9286,331.393
231.6000,-20.2675,332.053
231.5000,-20.5564,332.719
231.4000,-20.8161,333.392
231.3000,-21.06,334.073
231.2000,-21.3142,334.751
231.1000,-21.5654,335.424
231.0000,-21.7224,336.097
230.9000,-21.9313,336.772
230.8000,-22.2911,337.44
230.7000,-22.6324,338.115
230.6000,-22.9477,338.788
230.5000,-23.2901,339.458
230.4000,-23.6046,340.114
230.3000,-23.8783,340.76
230.2000,-24.2447,341.405
230.1000,-24.6603,342.05
230.0000,-24.9662,342.707
229.9000,-25.312,343.367
229.8000,-25.6786,344.024
229.7000,-25.999,344.679
229.6000,-26.2936,345.325
229.5000,-26.6694,345.969
229.4000,-27.1222,346.618
229.3000,-27.5532,347.268
229.2000,-27.8388,347.915
229.1000,-28.1465,348.561
229.0000,-28.4851,349.204
228.9000,-28.853,349.848
228.8000,-29.2188,350.498
228.7000,-29.5291,351.156
228.6000,-29.7823,351.817
228.5000,-30.1076,352.477
228.4000,-30.3954,353.131
228.3000,-30.6812,353.773
228.2000,-30.9861,354.409
228.1000,-31.2649,355.044
228.0000,-31.5405,355.671
227.9000,-31.8191,356.296
227.8000,-32.0868,356.923
227.7000,-32.3738,357.545
227.6000,-32.7159,358.163
227.5000,-33.1272,358.771
227.4000,-33.5352,359.37
227.3000,-33.914,359.965
227.2000,-34.2636,360.557
227.1000,-34.6436,361.149
227.0000,-35.1511,361.735
226.9000,-35.6423,362.314
226.8000,-35.9982,362.888
226.7000,-36.4145,363.455
226.6000,-36.7945,364.026
226.5000,-37.16,364.602
226.4000,-37.5757,365.174
226.3000,-38.0116,365.749
226.2000,-38.4424,366.322
226.1000,-38.8648,366.887
226.0000,-39.1983,367.445
225.9000,-39.686,367.999
225.8000,-40.0726,368.567
225.7000,-40.4805,369.143
225.6000,-40.938,369.715
225.5000,-41.3736,370.282
225.4000,-41.6822,370.848
225.3000,-41.9618,371.414
225.2000,-42.327,371.979
225.1000,-42.7405,372.549
225.0000,-43.0889,373.124
224.9000,-43.5326,373.695
224.8000,-43.9562,374.262
224.7000,-44.2819,374.833
224.6000,-44.565,375.404
224.5000,-44.9401,375.969
224.4000,-45.2978,376.547
224.3000,-45.6889,377.129
224.2000,-45.8847,377.711
224.1000,-46.0993,378.282
224.0000,-46.2038,378.855
223.9000,-46.3946,379.429
223.8000,-46.6425,380.002
223.7000,-46.9451,380.57
223.6000,-47.169,381.142
223.5000,-47.2305,381.716
223.4000,-47.3628,382.282
223.3000,-47.4369,382.855
223.2000,-47.3856,383.431
223.1000,-47.4068,384.007
223.0000,-47.6817,384.576
222.9000,-47.849,385.148
222.8000,-47.8398,385.722
222.7000,-47.8774,386.288
222.6000,-47.9793,386.856
222.5000,-48.2224,387.426
222.4000,-48.5157,387.99
222.3000,-48.8447,388.55
222.2000,-49.0239,389.114
222.1000,-49.1987,389.681
222.0000,-49.2896,390.255
221.9000,-49.4593,390.824
221.8000,-49.6023,391.397
221.7000,-49.7079,391.975
221.6000,-49.8869,392.548
221.5000,-50.2082,393.117
221.4000,-50.4482,393.682
221.3000,-50.5527,394.253
221.2000,-50.6826,394.828
221.1000,-50.8277,395.406
221.0000,-51.0443,395.978
220.9000,-51.3957,396.543
220.8000,-51.6903,397.108
220.7000,-51.9391,397.674
220.6000,-52.2081,398.24
220.5000,-52.3348,398.814
220.4000,-52.3392,399.394
220.3000,-52.4053,399.979
220.2000,-52.4236,400.563
220.1000,-52.4859,401.145
220.0000,-52.7493,401.711
219.9000,-52.9499,402.279
219.8000,-53.0813,402.857
219.7000,-53.1967,403.44
219.6000,-53.2848,404.023
219.5000,-53.3403,404.605
219.4000,-53.4434,405.185
219.3000,-53.2971,405.77
219.2000,-53.1192,406.36
219.1000,-52.9742,406.956
219.0000,-52.8062,407.56
218.9000,-52.5632,408.164
218.8000,-52.3904,408.764
218.7000,-52.2576,409.355
218.6000,-52.1451,409.948
218.5000,-52.1693,410.544
218.4000,-51.968,411.153
218.3000,-51.8019,411.77
218.2000,-51.7302,412.383
218.1000,-51.6533,412.993
218.0000,-51.6155,413.6
217.9000,-51.5689,414.208
217.8000,-51.4503,414.824
217.7000,-51.2889,415.443
217.6000,-51.0717,416.072
217.5000,-50.7803,416.706
217.4000,-50.4609,417.342
217.3000,-50.2191,417.977
217.2000,-50.1545,418.607
217.1000,-50.2362,419.238
217.0000,-50.3253,419.879
216.9000,-50.3557,420.525
216.8000,-50.5124,421.169
216.7000,-50.7609,421.813
216.6000,-50.9405,422.461
216.5000,-50.8493,423.118
216.4000,-50.8543,423.78
216.3000,-50.8462,424.457
216.2000,-50.8379,425.14
216.1000,-50.9328,425.833
216.0000,-50.9116,426.539
215.9000,-51.0157,427.245
215.8000,-51.2794,427.949
215.7000,-51.5509,428.663
215.6000,-51.74,429.394
215.5000,-51.8427,430.141
215.4000,-51.8434,430.899
215.3000,-51.8981,431.652
215.2000,-51.8973,432.415
215.1000,-51.6806,433.198
215.0000,-51.3493,433.995
214.9000,-50.9327,434.809
214.8000,-50.8213,435.626
214.7000,-50.5266,436.46
214.6000,-50.3814,437.304
214.5000,-50.2176,438.164
214.4000,-49.913,439.031
214.3000,-49.9046,439.901
214.2000,-49.8431,440.789
214.1000,-49.6857,441.699
214.0000,-49.5315,442.618
213.9000,-49.3401,443.544
213.8000,-49.2515,444.485
213.7000,-49.2092,445.447
213.6000,-48.9908,446.429
213.5000,-48.7585,447.423
213.4000,-48.4518,448.431
213.3000,-48.3748,449.452
213.2000,-48.143,450.492
213.1000,-47.8668,451.545
213.0000,-47.7492,452.604
212.9000,-47.757,453.671
212.8000,-47.9747,454.751
212.7000,-48.2422,455.852
212.6000,-48.1411,456.975
212.5000,-47.8154,458.124
212.4000,-47.5932,459.282
212.3000,-47.5597,460.455
212.2000,-47.3693,461.646
212.1000,-47.0138,462.851
212.0000,-46.7,464.071
211.9000,-46.5575,465.312
211.8000,-46.7273,466.565
211.7000,-46.7755,467.839
211.6000,-46.9519,469.124
211.5000,-47.2177,470.428
211.4000,-47.5329,471.757
211.3000,-47.6971,473.109
211.2000,-47.6577,474.484
211.1000,-47.4779,475.884
211.0000,-47.4064,477.297
210.9000,-47.604,478.722
210.8000,-47.5742,480.172
210.7000,-47.5292,481.653
210.6000,-47.4375,483.161
210.5000,-47.6237,484.689
210.4000,-48.0206,486.234
210.3000,-48.1724,487.806
210.2000,-47.9953,489.414
210.1000,-47.77,491.052
210.0000,-47.8616,492.708
209.9000,-47.6231,494.406
209.8000,-47.2534,496.139
209.7000,-47.0175,497.894
209.6000,-46.9921,499.681
209.5000,-46.726,501.504
209.4000,-46.2243,503.361
209.3000,-45.5654,505.261
209.2000,-45.4294,507.186
209.1000,-45.461,509.143
209.0000,-45.6799,511.129
208.9000,-45.8623,513.156
208.8000,-45.8153,515.221
208.7000,-45.5323,517.339
208.6000,-45.2012,519.501
208.5000,-45.2522,521.692
208.4000,-45.0704,523.928
208.3000,-44.6565,526.207
208.2000,-44.5651,528.516
208.1000,-44.5393,530.865
208.0000,-44.5176,533.245
207.9000,-44.4656,535.66
207.8000,-44.5064,538.123
207.7000,-44.4593,540.642
207.6000,-44.6654,543.192
207.5000,-44.3437,545.788
207.4000,-44.1217,548.422
207.3000,-43.5389,551.113
207.2000,-42.9335,553.852
207.1000,-41.7163,556.655
207.0000,-40.7932,559.488
206.9000,-39.8292,562.374
206.8000,-38.9485,565.299
206.7000,-38.0107,568.27
206.6000,-37.4832,571.269
206.5000,-37.0762,574.306
206.4000,-36.5374,577.398
206.3000,-36.2178,580.537
206.2000,-36.1791,583.728
206.1000,-36.0174,586.961
206.0000,-35.8208,590.242
205.9000,-35.293,593.59
205.8000,-35.6839,596.96
205.7000,-35.9446,600.377
205.6000,-36.3409,603.842
205.5000,-36.5562,607.362
205.4000,-36.6028,610.941
205.3000,-37.0673,614.555
205.2000,-37.0895,618.217
205.1000,-37.0621,621.94
205.0000,-36.5985,625.733
204.9000,-35.5961,629.608
204.8000,-34.0823,633.551
204.7000,-32.8368,637.523
204.6000,-31.344,641.559
204.5000,-30.8116,645.61
204.4000,-30.5527,649.707
204.3000,-30.542,653.84
204.2000,-29.2467,658.06
204.1000,-25.8968,662.407
204.0000,-22.004,666.812
203.9000,-18.4193,671.244
203.8000,-16.29,675.666
203.7000,-14.8973,680.101
203.6000,-12.8261,684.597
203.5000,-11.11,689.123
203.4000,-9.808,693.659
203.3000,-8.10948,698.244
203.2000,-6.48328,702.84
203.1000,-6.34137,707.411
203.0000,-6.48872,711.987
202.9000,-6.83188,716.559
202.8000,-5.66327,721.19
202.7000,-3.74198,725.839
202.6000,-1.99697,730.497
202.5000,-2.06372,735.084
202.4000,-2.45291,739.645
202.3000,-3.69687,744.18
202.2000,-2.51126,748.768
202.1000,-0.0576569,753.377
202.0000,0.88504,757.923
201.9000,-1.87984,762.319
201.8000,-5.12539,766.662
201.7000,-5.36618,771.047
201.6000,-2.89464,775.474
201.5000,-1.0258,779.843
201.4000,0.726813,784.167
201.3000,1.78334,788.428
201.2000,2.77673,792.632
201.1000,1.11372,796.694
201.0000,-4.04447,800.588
200.9000,-5.88607,804.5
200.8000,-13.96,808.149
200.7000,-21.3282,811.74
200.6000,-23.019,815.461
200.5000,-22.5999,819.181
200.4000,-18.2886,822.933
200.3000,-12.4741,826.674
200.2000,-2.65183,830.473
200.1000,3.85691,834.082
200.0000,9.08046,837.556
199.9000,9.16663,840.803
199.8000,10.9357,844.028
199.7000,15.75,847.228
199.6000,20.8777,850.387
199.5000,29.954,853.57
199.4000,39.8803,856.68
199.3000,45.9063,859.59
199.2000,51.4905,862.454
199.1000,58.3233,865.245
199.0000,62.1581,853.363
198.9000,60.223,833.847
198.8000,56.1516,835.995
198.7000,52.2281,841.267
198.6000,48.6226,846.68
198.5000,44.8267,852.056
198.4000,42.4477,857.402
198.3000,40.2518,862.681
198.2000,45.0356,868.077
198.1000,42.6527,873.229
198.0000,38.7454,878.214
197.9000,35.7638,883.151
197.8000,23.9032,887.746
197.7000,14.4951,892.339
197.6000,14.3662,897.141
197.5000,19.388,902.037
197.4000,28.7008,908.847
197.3000,33.2163,936.107
197.2000,38.8403,953.944
197.1000,38.9064,956.334
197.0000,37.2351,957.383
196.9000,35.7038,958.245
196.8000,34.4838,959.117
196.7000,31.0299,959.838
196.6000,22.198,960.334
196.5000,15.6396,960.756
196.4000,15.1306,961.318
196.3000,13.7538,961.852
196.2000,10.5941,962.292
196.1000,16.5889,962.996
196.0000,17.0506,963.559
195.9000,16.4053,963.904
195.8000,11.5632,964.03
195.7000,3.40899,964.018
195.6000,0.760596,961.256
195.5000,-2.85772,939.14
195.4000,-4.36536,936.32
195.3000,-3.45692,939.971
195.2000,-5.80851,943.893
195.1000,-4.07597,947.949
195.0000,1.49591,952.093
194.9000,9.10235,956.36
194.8000,13.4633,960.52
194.7000,13.3711,964.505
194.6000,18.9906,968.673
194.5000,25.8965,972.793
194.4000,29.6121,976.774
194.3000,25.8128,980.514
194.2000,15.074,984.194
194.1000,10.9687,988.012
194.0000,12.6488,992.006
193.9000,16.416,1005.37
193.8000,19.1553,1028.3
193.7000,21.3123,1031.28
193.6000,20.5195,1031.5
193.5000,21.1682,1031.54
193.4000,16.01,1031.38
193.3000,7.55776,1031.12
193.2000,3.73596,1031
193.1000,3.20699,1030.97
193.0000,-1.57316,1030.82
192.9000,-7.74953,1030.63
192.8000,-11.5213,1030.52
192.7000,-11.5314,1030.51
192.6000,-2.18367,1030.8
192.5000,-0.915958,1030.84
192.4000,-3.9864,1030.73
192.3000,-6.21369,1030.53
192.2000,-11.204,1030.1
192.1000,-16.9264,1029.38
192.0000,-21.7389,1028.13
191.9000,-26.8914,1026.57
191.8000,-29.2125,1024.76
191.7000,-26.5126,1022.95
191.6000,-28.4874,1020.88
191.5000,-32.5603,1018.66
191.4000,-31.1541,1016.56
191.3000,-27.2301,1014.47
191.2000,-28.0888,1012.13
191.1000,-30.801,1009.66
191.0000,-34.6659,1007.16
190.9000,-33.1538,1004.77
190.8000,-20.2513,1002.71
190.7000,-12.9754,1000.47
190.6000,-8.99922,998.24
190.5000,-6.93777,996.088
190.4000,-4.75805,994.224
190.3000,-1.97873,992.936
190.2000,-3.96547,991.875
190.1000,-0.903571,991.148
190.0000,4.07971,990.73

##### Extended Information
[Comments]
Sample name,DL121 15C Dark
Comment
User,JM
Division
Company,UT Southwestern Medical Center at Dallas

[Detailed Information]
Creation date,5/1/2023 12:01 PM

Data array type,Linear data array * 2
Horizontal axis,Wavelength [nm]
Vertical axis(1),CD [mdeg]
Vertical axis(2),HT [V]
Start,250 nm
End,190 nm
Data interval,0.1 nm
Data points,601     

[Measurement Information]
Instrument name,Jasco CD
Model name,J-815
Serial No.,B064061168

Accessory,CDF-426S
Accessory S/N,A00861183
  Temperature,15.00 C
  Control sonsor,Holder
  Monitor sensor,Holder
  Start Mode,Keep target temperature +/-0.10 deg C while 5 seconds
  Cell length,10 mm

Measurement date,5/1/2023 12:01 PM

Photometric mode,CD, HT
Measure range,250 - 190 nm
Data pitch,0.1 nm
Sensitivity,Standard
D.I.T.,1 sec
Bandwidth,1.00 nm
Start mode,Immediately
Scanning speed,100 nm/min
Baseline correction,None
Shutter control,Manual
CD detector,PMT
PMT voltage,Auto
No. of cycle,2/3

Concentration,0.7 (w/v)%
Solvent,50mM nap04 ph 6.5 100mM NaF

