TITLE,DL121 65C Lit
DATA TYPE,
ORIGIN,JASCO
OWNER,
DATE,23/05/01
TIME,15:10:55
SPECTROMETER/DATA SYSTEM,
LOCALE,1033
RESOLUTION,
DELTAX,-0.1
XUNITS,NANOMETERS
YUNITS,CD [mdeg]
Y2UNITS,HT [V]
FIRSTX,  250.0000
LASTX,  190.0000
NPOINTS,     601
FIRSTY,    -0.80642
MAXY,    40.38677
MINY,   -46.56676
XYDATA
250.0000,-0.806424,297.375
249.9000,-0.85614,297.436
249.8000,-0.930313,297.502
249.7000,-1.01525,297.571
249.6000,-1.09553,297.638
249.5000,-1.18242,297.714
249.4000,-1.29268,297.788
249.3000,-1.36638,297.86
249.2000,-1.40951,297.932
249.1000,-1.41036,298.007
249.0000,-1.41092,298.084
248.9000,-1.40072,298.164
248.8000,-1.38941,298.248
248.7000,-1.37985,298.335
248.6000,-1.37927,298.424
248.5000,-1.38503,298.509
248.4000,-1.40218,298.588
248.3000,-1.41912,298.674
248.2000,-1.43783,298.762
248.1000,-1.45429,298.848
248.0000,-1.45394,298.933
247.9000,-1.42282,299.014
247.8000,-1.39718,299.093
247.7000,-1.35333,299.179
247.6000,-1.30679,299.272
247.5000,-1.30838,299.361
247.4000,-1.34189,299.448
247.3000,-1.39427,299.536
247.2000,-1.48866,299.623
247.1000,-1.54999,299.711
247.0000,-1.64077,299.801
246.9000,-1.78633,299.896
246.8000,-1.91455,300.001
246.7000,-1.98566,300.109
246.6000,-2.02488,300.211
246.5000,-2.05594,300.316
246.4000,-2.09753,300.426
246.3000,-2.17543,300.543
246.2000,-2.25148,300.662
246.1000,-2.33301,300.781
246.0000,-2.40908,300.897
245.9000,-2.48264,301.011
245.8000,-2.52173,301.13
245.7000,-2.55455,301.249
245.6000,-2.54709,301.37
245.5000,-2.55671,301.49
245.4000,-2.59134,301.612
245.3000,-2.58795,301.732
245.2000,-2.57124,301.846
245.1000,-2.57592,301.963
245.0000,-2.61229,302.086
244.9000,-2.6817,302.214
244.8000,-2.71162,302.341
244.7000,-2.75372,302.469
244.6000,-2.7981,302.599
244.5000,-2.83192,302.735
244.4000,-2.86509,302.87
244.3000,-2.94214,303.005
244.2000,-3.01103,303.141
244.1000,-3.07412,303.282
244.0000,-3.17702,303.424
243.9000,-3.28541,303.566
243.8000,-3.3713,303.712
243.7000,-3.47319,303.859
243.6000,-3.58034,304.011
243.5000,-3.67346,304.167
243.4000,-3.78848,304.324
243.3000,-3.89085,304.479
243.2000,-3.98088,304.636
243.1000,-4.05698,304.793
243.0000,-4.08877,304.956
242.9000,-4.0922,305.123
242.8000,-4.15766,305.295
242.7000,-4.22379,305.468
242.6000,-4.2221,305.644
242.5000,-4.22859,305.822
242.4000,-4.23329,305.998
242.3000,-4.24344,306.178
242.2000,-4.21716,306.365
242.1000,-4.20168,306.552
242.0000,-4.16711,306.744
241.9000,-4.15126,306.933
241.8000,-4.13617,307.121
241.7000,-4.11314,307.316
241.6000,-4.10546,307.516
241.5000,-4.16987,307.719
241.4000,-4.29178,307.922
241.3000,-4.39075,308.126
241.2000,-4.46079,308.329
241.1000,-4.47743,308.537
241.0000,-4.5235,308.755
240.9000,-4.59022,308.978
240.8000,-4.64386,309.206
240.7000,-4.70445,309.438
240.6000,-4.75816,309.671
240.5000,-4.88969,309.906
240.4000,-5.05322,310.148
240.3000,-5.23021,310.395
240.2000,-5.3514,310.645
240.1000,-5.49554,310.891
240.0000,-5.65298,311.141
239.9000,-5.74324,311.399
239.8000,-5.75657,311.666
239.7000,-5.75099,311.938
239.6000,-5.78791,312.211
239.5000,-5.88554,312.487
239.4000,-6.01352,312.77
239.3000,-6.17828,313.056
239.2000,-6.34416,313.348
239.1000,-6.55154,313.637
239.0000,-6.77635,313.926
238.9000,-6.97348,314.224
238.8000,-7.10904,314.527
238.7000,-7.21256,314.837
238.6000,-7.32419,315.155
238.5000,-7.44824,315.483
238.4000,-7.52846,315.82
238.3000,-7.60449,316.16
238.2000,-7.81793,316.499
238.1000,-8.00719,316.846
238.0000,-8.03363,315.635
237.9000,-7.87093,306.848
237.8000,-7.58983,301.034
237.7000,-7.27293,296.24
237.6000,-6.90998,292.751
237.5000,-6.69894,292.833
237.4000,-6.57134,293.23
237.3000,-6.52638,293.644
237.2000,-6.57664,294.058
237.1000,-6.59266,294.48
237.0000,-6.69612,294.899
236.9000,-6.79019,295.329
236.8000,-6.92522,295.769
236.7000,-7.07261,296.218
236.6000,-7.19943,296.675
236.5000,-7.26854,297.139
236.4000,-7.36728,297.605
236.3000,-7.70003,302.042
236.2000,-8.2063,311.655
236.1000,-8.78036,317.672
236.0000,-9.39093,323.284
235.9000,-9.9764,326.151
235.8000,-10.4484,326.735
235.7000,-10.8401,327.23
235.6000,-11.1147,327.731
235.5000,-11.3421,328.24
235.4000,-11.5771,328.755
235.3000,-11.7488,329.279
235.2000,-11.8993,329.804
235.1000,-12.0547,330.331
235.0000,-12.2021,330.862
234.9000,-12.3485,331.4
234.8000,-12.4593,331.952
234.7000,-12.5797,332.513
234.6000,-12.7258,333.083
234.5000,-12.8549,333.662
234.4000,-13.0292,334.247
234.3000,-13.1933,334.842
234.2000,-13.2949,335.449
234.1000,-13.3404,336.067
234.0000,-13.4015,336.689
233.9000,-13.5617,337.314
233.8000,-13.7548,337.944
233.7000,-13.9244,338.579
233.6000,-14.1298,339.224
233.5000,-14.2824,339.883
233.4000,-14.427,340.553
233.3000,-14.605,341.228
233.2000,-14.7885,341.902
233.1000,-15.0259,342.578
233.0000,-15.2551,343.255
232.9000,-15.4203,343.936
232.8000,-15.6567,344.621
232.7000,-15.8586,345.319
232.6000,-16.0211,346.018
232.5000,-16.3299,346.716
232.4000,-16.6004,347.42
232.3000,-16.8188,348.134
232.2000,-17.0669,348.853
232.1000,-17.2167,349.584
232.0000,-17.3504,350.325
231.9000,-17.4449,351.065
231.8000,-17.6339,351.802
231.7000,-17.8782,352.542
231.6000,-18.102,353.294
231.5000,-18.3477,354.048
231.4000,-18.6044,354.811
231.3000,-18.8381,355.586
231.2000,-19.0699,356.369
231.1000,-19.1992,357.157
231.0000,-19.3769,357.942
230.9000,-19.5728,358.732
230.8000,-19.6883,359.522
230.7000,-19.8885,360.315
230.6000,-19.9827,361.115
230.5000,-19.9345,361.928
230.4000,-19.9681,362.739
230.3000,-20.0854,363.542
230.2000,-20.3627,364.342
230.1000,-20.6912,365.146
230.0000,-20.9825,365.958
229.9000,-21.2202,366.776
229.8000,-21.297,367.603
229.7000,-21.3304,368.426
229.6000,-21.3882,369.238
229.5000,-21.5264,370.047
229.4000,-21.6601,370.864
229.3000,-21.7447,371.689
229.2000,-21.822,372.518
229.1000,-21.9511,373.351
229.0000,-22.2434,374.174
228.9000,-22.4731,375
228.8000,-22.8088,375.826
228.7000,-23.2031,376.659
228.6000,-23.6156,377.502
228.5000,-23.7942,378.359
228.4000,-23.8053,379.214
228.3000,-23.9894,380.054
228.2000,-24.1486,380.887
228.1000,-24.3494,381.718
228.0000,-24.6456,382.557
227.9000,-24.8568,383.404
227.8000,-25.0595,384.251
227.7000,-25.3555,385.091
227.6000,-25.7675,385.924
227.5000,-26.2376,386.753
227.4000,-26.5522,387.585
227.3000,-26.8252,388.423
227.2000,-27.1657,389.256
227.1000,-27.4194,390.082
227.0000,-27.5937,390.899
226.9000,-27.7826,391.709
226.8000,-28.0068,392.514
226.7000,-28.3083,393.319
226.6000,-28.5197,394.139
226.5000,-28.809,394.972
226.4000,-29.1671,395.801
226.3000,-29.5589,396.619
226.2000,-30.0426,397.428
226.1000,-30.343,398.238
226.0000,-30.555,399.053
225.9000,-30.7838,399.869
225.8000,-30.9756,400.683
225.7000,-31.1901,401.494
225.6000,-31.3604,402.301
225.5000,-31.4008,403.109
225.4000,-31.4845,403.919
225.3000,-31.7689,404.728
225.2000,-32.0306,405.538
225.1000,-32.3045,406.35
225.0000,-32.5834,407.157
224.9000,-32.8499,407.951
224.8000,-33.0664,408.738
224.7000,-33.2217,409.531
224.6000,-33.192,410.34
224.5000,-33.254,411.152
224.4000,-33.421,411.96
224.3000,-33.4424,412.764
224.2000,-33.4382,413.567
224.1000,-33.424,414.379
224.0000,-33.4357,415.196
223.9000,-33.6807,416.008
223.8000,-34.0841,416.813
223.7000,-34.422,417.619
223.6000,-34.6683,418.427
223.5000,-34.9295,419.234
223.4000,-35.1412,420.039
223.3000,-35.2636,420.851
223.2000,-35.3759,421.665
223.1000,-35.6558,422.474
223.0000,-36.114,423.27
222.9000,-36.6661,424.064
222.8000,-37.0446,424.863
222.7000,-37.2993,425.663
222.6000,-37.6305,426.465
222.5000,-37.8685,427.268
222.4000,-38.1556,428.069
222.3000,-38.2813,428.874
222.2000,-38.3174,429.686
222.1000,-38.4452,430.495
222.0000,-38.6049,431.304
221.9000,-38.727,432.111
221.8000,-38.9672,432.911
221.7000,-39.1961,433.717
221.6000,-39.4572,434.521
221.5000,-39.576,435.332
221.4000,-39.5602,436.149
221.3000,-39.6777,436.967
221.2000,-39.705,437.788
221.1000,-40.0039,438.601
221.0000,-40.2972,439.411
220.9000,-40.3767,436.133
220.8000,-39.5436,421.575
220.7000,-38.1735,401.16
220.6000,-36.4587,377.995
220.5000,-34.5065,353.405
220.4000,-32.4192,343.819
220.3000,-30.8228,344.042
220.2000,-29.8403,344.884
220.1000,-29.3861,345.776
220.0000,-29.2518,346.663
219.9000,-29.3762,347.546
219.8000,-29.5569,348.43
219.7000,-29.7895,349.314
219.6000,-29.946,350.195
219.5000,-29.9291,351.085
219.4000,-29.9613,351.987
219.3000,-30.0253,352.962
219.2000,-30.6283,362.04
219.1000,-31.9886,380.801
219.0000,-33.9301,404.077
218.9000,-36.2092,429.549
218.8000,-38.4811,454.139
218.7000,-40.5505,459.268
218.6000,-41.9291,460.423
218.5000,-42.6952,461.33
218.4000,-42.9743,462.229
218.3000,-43.2545,463.136
218.2000,-43.5948,464.042
218.1000,-43.8225,464.947
218.0000,-43.5056,465.876
217.9000,-43.0617,466.822
217.8000,-43.0343,467.759
217.7000,-43.0813,468.697
217.6000,-42.9693,469.656
217.5000,-42.7596,470.626
217.4000,-42.6659,471.602
217.3000,-42.4575,472.589
217.2000,-42.1243,473.594
217.1000,-42.0968,474.596
217.0000,-42.2871,475.605
216.9000,-42.5429,476.626
216.8000,-42.6422,477.66
216.7000,-42.7226,478.7
216.6000,-42.2581,479.764
216.5000,-41.8358,480.842
216.4000,-41.7977,481.927
216.3000,-42.0029,483.024
216.2000,-42.2221,484.129
216.1000,-42.2646,485.253
216.0000,-42.3537,486.384
215.9000,-42.31,487.529
215.8000,-42.6408,488.673
215.7000,-42.6966,489.837
215.6000,-42.7456,491.006
215.5000,-42.9837,492.182
215.4000,-43.0949,493.377
215.3000,-43.1161,494.581
215.2000,-42.9761,495.806
215.1000,-42.9166,497.038
215.0000,-42.8865,498.287
214.9000,-43.2872,499.542
214.8000,-43.7667,500.812
214.7000,-43.765,502.113
214.6000,-43.7368,503.424
214.5000,-43.8533,504.745
214.4000,-43.9113,506.089
214.3000,-44.0235,507.46
214.2000,-44.6681,508.832
214.1000,-44.7557,510.24
214.0000,-44.9231,511.662
213.9000,-45.1958,513.103
213.8000,-45.3419,514.557
213.7000,-45.2692,516.039
213.6000,-45.4552,517.54
213.5000,-45.7373,519.057
213.4000,-46.1843,520.586
213.3000,-46.5392,522.139
213.2000,-46.5361,523.722
213.1000,-46.1659,525.339
213.0000,-46.5299,526.957
212.9000,-46.5668,528.61
212.8000,-46.1092,530.3
212.7000,-45.4699,532.013
212.6000,-44.6278,533.75
212.5000,-43.8968,535.505
212.4000,-43.476,537.273
212.3000,-43.1129,539.065
212.2000,-43.0361,540.879
212.1000,-43.127,542.712
212.0000,-43.1931,544.57
211.9000,-42.6477,546.466
211.8000,-41.8676,548.4
211.7000,-40.725,550.379
211.6000,-39.7759,552.37
211.5000,-39.6775,554.358
211.4000,-39.4197,556.379
211.3000,-39.3963,558.409
211.2000,-39.801,560.454
211.1000,-40.6526,562.504
211.0000,-41.4293,564.585
210.9000,-42.2715,566.705
210.8000,-43.3046,568.854
210.7000,-44.1842,571.038
210.6000,-44.4822,573.259
210.5000,-44.1147,575.528
210.4000,-43.7317,577.839
210.3000,-44.0475,580.16
210.2000,-44.6906,582.509
210.1000,-45.2236,584.895
210.0000,-46.0888,587.295
209.9000,-46.2453,589.764
209.8000,-46.0709,592.281
209.7000,-45.8854,594.844
209.6000,-45.6271,597.456
209.5000,-44.8792,600.126
209.4000,-43.8662,602.843
209.3000,-43.4145,605.565
209.2000,-43.2089,608.306
209.1000,-42.4962,611.114
209.0000,-42.0569,613.964
208.9000,-41.9327,616.861
208.8000,-41.1861,619.823
208.7000,-39.1905,622.876
208.6000,-37.5708,625.965
208.5000,-36.8447,629.073
208.4000,-35.9461,632.232
208.3000,-35.8792,635.405
208.2000,-34.862,638.651
208.1000,-34.7202,641.906
208.0000,-34.1916,645.215
207.9000,-33.9724,648.569
207.8000,-34.3464,651.946
207.7000,-33.3743,655.415
207.6000,-31.9268,658.938
207.5000,-30.873,662.496
207.4000,-29.7348,666.097
207.3000,-29.2925,669.711
207.2000,-28.7505,673.34
207.1000,-28.5853,676.991
207.0000,-28.4902,680.658
206.9000,-27.2456,684.391
206.8000,-26.0056,688.148
206.7000,-24.3815,691.961
206.6000,-23.5095,695.792
206.5000,-24.0739,699.602
206.4000,-21.7691,703.537
206.3000,-19.547,707.503
206.2000,-17.4637,711.486
206.1000,-16.0998,715.459
206.0000,-16.4732,719.395
205.9000,-17.0263,723.346
205.8000,-15.7202,727.343
205.7000,-16.495,731.254
205.6000,-16.1465,735.219
205.5000,-16.2499,739.182
205.4000,-16.1937,743.132
205.3000,-16.3457,747.073
205.2000,-15.3127,751.025
205.1000,-13.4335,754.971
205.0000,-11.3945,758.886
204.9000,-8.26401,762.786
204.8000,-3.17835,766.706
204.7000,-0.944656,770.505
204.6000,-0.323712,774.174
204.5000,-0.750909,777.756
204.4000,-3.60275,781.217
204.3000,-2.97715,784.75
204.2000,1.24417,788.342
204.1000,3.76063,791.822
204.0000,10.3713,795.389
203.9000,15.6405,798.823
203.8000,18.6018,788.431
203.7000,20.4273,758.441
203.6000,21.7698,719.94
203.5000,20.415,677.22
203.4000,20.443,632.344
203.3000,18.4908,586.172
203.2000,16.2467,553.686
203.1000,13.4297,551.983
203.0000,14.6513,559.421
202.9000,18.1186,567.896
202.8000,19.322,576.32
202.7000,21.9034,584.541
202.6000,21.1948,591.548
202.5000,19.4801,597.555
202.4000,21.1704,602.986
202.3000,16.6123,607.755
202.2000,15.8391,613.76
202.1000,21.4297,640.662
202.0000,25.0592,682.164
201.9000,24.4748,730.128
201.8000,20.2176,781.224
201.7000,15.825,834.11
201.6000,9.92227,887.39
201.5000,8.68547,915.282
201.4000,6.71842,919.209
201.3000,-0.0560211,918.455
201.2000,-0.0136749,917.392
201.1000,3.20812,916.371
201.0000,0.297037,915.54
200.9000,-3.05765,915.762
200.8000,-6.02171,916.725
200.7000,-12.1863,917.899
200.6000,-14.0895,919.659
200.5000,-17.7149,921.471
200.4000,-34.0002,917.104
200.3000,-42.4633,911.84
200.2000,-40.3149,910.077
200.1000,-37.5288,908.485
200.0000,-33.9722,906.772
199.9000,-30.2403,904.888
199.8000,-25.6583,902.867
199.7000,-25.4015,900.653
199.6000,-27.3924,897.909
199.5000,-28.01,895.127
199.4000,-30.4598,892.161
199.3000,-26.1272,889.202
199.2000,-22.0235,886.109
199.1000,-25.2587,882.749
199.0000,-24.0475,879.257
198.9000,-35.0616,875.07
198.8000,-38.9582,871.265
198.7000,-37.3462,876.185
198.6000,-38.8019,875.823
198.5000,-38.5814,875.113
198.4000,-34.8348,874.235
198.3000,-28.4212,873.351
198.2000,-28.0815,872.236
198.1000,-26.5524,870.869
198.0000,-24.8579,869.073
197.9000,-25.0559,867.603
197.8000,-29.6659,865.469
197.7000,-31.9445,863.62
197.6000,-36.7929,861.682
197.5000,-40.384,859.387
197.4000,-41.3382,857.104
197.3000,-36.4467,855.357
197.2000,-27.4466,853.901
197.1000,-18.5304,851.992
197.0000,-10.9928,851.024
196.9000,-6.05884,849.415
196.8000,-8.06388,847.014
196.7000,-13.6989,841.116
196.6000,-17.961,839.861
196.5000,-20.1039,815.359
196.4000,-22.2529,806.484
196.3000,-18.5071,816.581
196.2000,-12.2413,827.316
196.1000,-3.02912,838.862
196.0000,3.87669,849.892
195.9000,11.6665,861.404
195.8000,20.1937,873.067
195.7000,27.8773,884.868
195.6000,33.1841,896.524
195.5000,33.6693,908.111
195.4000,30.2686,919.817
195.3000,26.1331,931.241
195.2000,19.1664,942.894
195.1000,14.9982,955.342
195.0000,11.584,968.263
194.9000,8.3566,986.218
194.8000,6.69543,1021.52
194.7000,5.06719,1030.85
194.6000,-1.85508,1030.79
194.5000,-4.11826,1030.72
194.4000,-8.67512,1030.58
194.3000,-14.6202,1030.39
194.2000,-21.8582,1030.16
194.1000,-25.7549,1030.04
194.0000,-30.3214,1029.9
193.9000,-31.0656,1029.88
193.8000,-27.8155,1029.98
193.7000,-24.3071,1030.09
193.6000,-19.9177,1030.22
193.5000,-11.9155,1030.48
193.4000,-3.33156,1030.75
193.3000,3.44571,1030.96
193.2000,6.56777,1031.06
193.1000,13.457,1031.27
193.0000,19.2505,1031.45
192.9000,22.2978,1031.54
192.8000,20.316,1031.48
192.7000,22.1611,1031.54
192.6000,30.3047,1031.79
192.5000,37.6641,1032.01
192.4000,40.3868,1032.1
192.3000,38.894,1032.05
192.2000,37.1829,1032
192.1000,37.8613,1032.02
192.0000,32.7619,1031.86
191.9000,30.4587,1031.79
191.8000,29.8487,1031.77
191.7000,28.4558,1031.73
191.6000,29.7706,1031.77
191.5000,32.709,1031.85
191.4000,32.0482,1031.83
191.3000,25.3498,1031.62
191.2000,21.5832,1031.5
191.1000,17.6133,1031.38
191.0000,12.2414,1031.21
190.9000,6.91141,1031.05
190.8000,5.737,1031.01
190.7000,6.99532,1031.05
190.6000,7.24309,1031.06
190.5000,6.97687,1031.05
190.4000,10.3857,1031.15
190.3000,17.8835,1031.39
190.2000,20.8097,1031.48
190.1000,19.3265,1031.43
190.0000,16.5902,1031.35

##### Extended Information
[Comments]
Sample name,DL121 65C Lit
Comment
User,JM
Division
Company,UT Southwestern Medical Center at Dallas

[Detailed Information]
Creation date,5/1/2023 3:10 PM

Data array type,Linear data array * 2
Horizontal axis,Wavelength [nm]
Vertical axis(1),CD [mdeg]
Vertical axis(2),HT [V]
Start,250 nm
End,190 nm
Data interval,0.1 nm
Data points,601     

[Measurement Information]
Instrument name,Jasco CD
Model name,J-815
Serial No.,B064061168

Accessory,CDF-426S
Accessory S/N,A00861183
  Temperature,64.99 C
  Control sonsor,Holder
  Monitor sensor,Holder
  Start Mode,Keep target temperature +/-0.10 deg C while 5 seconds
  Cell length,10 mm

Measurement date,5/1/2023 3:10 PM

Photometric mode,CD, HT
Measure range,250 - 190 nm
Data pitch,0.1 nm
Sensitivity,Standard
D.I.T.,1 sec
Bandwidth,1.00 nm
Start mode,Immediately
Scanning speed,100 nm/min
Baseline correction,None
Shutter control,Manual
CD detector,PMT
PMT voltage,Auto
No. of cycle,1/3

Concentration,0.7 (w/v)%
Solvent,50mM nap04 ph 6.5 100mM NaF

