TITLE,DL121 10C Dark
DATA TYPE,
ORIGIN,JASCO
OWNER,
DATE,23/05/01
TIME,11:47:23
SPECTROMETER/DATA SYSTEM,
LOCALE,1033
RESOLUTION,
DELTAX,-0.1
XUNITS,NANOMETERS
YUNITS,CD [mdeg]
Y2UNITS,HT [V]
FIRSTX,  250.0000
LASTX,  190.0000
NPOINTS,     601
FIRSTY,    -0.45308
MAXY,    75.53388
MINY,   -64.16402
XYDATA
250.0000,-0.453076,285.484
249.9000,-0.531464,285.519
249.8000,-0.582742,285.557
249.7000,-0.631317,285.595
249.6000,-0.701059,285.633
249.5000,-0.73371,285.677
249.4000,-0.736322,285.721
249.3000,-0.781961,285.766
249.2000,-0.842352,285.809
249.1000,-0.930078,285.847
249.0000,-0.996887,285.886
248.9000,-1.06327,285.933
248.8000,-1.14058,285.984
248.7000,-1.17307,286.033
248.6000,-1.16079,286.084
248.5000,-1.12568,286.128
248.4000,-1.07618,286.171
248.3000,-1.10229,286.217
248.2000,-1.10613,286.27
248.1000,-1.13683,286.314
248.0000,-1.14789,286.361
247.9000,-1.13997,286.409
247.8000,-1.16546,286.457
247.7000,-1.21688,286.508
247.6000,-1.26539,286.56
247.5000,-1.30862,286.609
247.4000,-1.32955,286.661
247.3000,-1.37176,286.719
247.2000,-1.38937,286.776
247.1000,-1.37269,286.835
247.0000,-1.45385,286.893
246.9000,-1.53521,286.951
246.8000,-1.59657,287.013
246.7000,-1.6506,287.076
246.6000,-1.68024,287.137
246.5000,-1.73042,287.202
246.4000,-1.75384,287.272
246.3000,-1.81999,287.337
246.2000,-1.8799,287.403
246.1000,-1.9037,287.48
246.0000,-1.88804,287.559
245.9000,-1.89446,287.639
245.8000,-1.89467,287.716
245.7000,-1.90108,287.791
245.6000,-1.91429,287.863
245.5000,-1.97187,287.936
245.4000,-2.01769,288.013
245.3000,-2.00529,288.093
245.2000,-2.03644,288.177
245.1000,-2.03444,288.269
245.0000,-1.98371,288.367
244.9000,-1.91793,288.462
244.8000,-1.84274,288.554
244.7000,-1.77577,288.65
244.6000,-1.72296,288.747
244.5000,-1.70103,288.846
244.4000,-1.71896,288.938
244.3000,-1.7343,289.03
244.2000,-1.71909,289.124
244.1000,-1.7297,289.219
244.0000,-1.71837,289.32
243.9000,-1.68872,289.424
243.8000,-1.66403,289.529
243.7000,-1.68064,289.637
243.6000,-1.67809,289.743
243.5000,-1.65257,289.848
243.4000,-1.67942,289.95
243.3000,-1.72518,290.056
243.2000,-1.77097,290.166
243.1000,-1.81296,290.279
243.0000,-1.85275,290.394
242.9000,-1.89821,290.512
242.8000,-1.97137,290.631
242.7000,-2.01913,290.751
242.6000,-2.10154,290.876
242.5000,-2.20651,291.008
242.4000,-2.32504,291.138
242.3000,-2.455,291.266
242.2000,-2.61411,291.392
242.1000,-2.71528,291.523
242.0000,-2.776,291.661
241.9000,-2.87546,291.802
241.8000,-2.95881,291.941
241.7000,-3.0478,292.08
241.6000,-3.16348,292.218
241.5000,-3.29245,292.363
241.4000,-3.43939,292.513
241.3000,-3.58262,292.669
241.2000,-3.69557,292.828
241.1000,-3.82975,292.985
241.0000,-3.9679,293.141
240.9000,-3.97927,293.306
240.8000,-4.01245,293.479
240.7000,-4.06347,293.661
240.6000,-4.09295,293.849
240.5000,-4.10215,294.036
240.4000,-4.13838,294.221
240.3000,-4.21813,294.411
240.2000,-4.30955,294.606
240.1000,-4.45214,294.807
240.0000,-4.57148,295.016
239.9000,-4.70623,295.231
239.8000,-4.83344,295.449
239.7000,-4.95271,295.668
239.6000,-5.01138,295.89
239.5000,-5.0584,296.121
239.4000,-5.10972,296.361
239.3000,-5.12887,296.609
239.2000,-5.24712,296.854
239.1000,-5.36479,297.096
239.0000,-5.48277,297.339
238.9000,-5.61066,297.589
238.8000,-5.75465,297.85
238.7000,-5.90308,298.117
238.6000,-6.08179,298.387
238.5000,-6.27847,298.66
238.4000,-6.42742,298.933
238.3000,-6.55176,299.211
238.2000,-6.64598,299.496
238.1000,-6.74598,299.786
238.0000,-6.86006,300.083
237.9000,-7.02724,300.383
237.8000,-7.18065,300.686
237.7000,-7.35861,300.993
237.6000,-7.55273,301.304
237.5000,-7.71113,301.624
237.4000,-7.84279,301.958
237.3000,-7.99407,302.297
237.2000,-8.17993,302.638
237.1000,-8.377,302.983
237.0000,-8.4754,303.333
236.9000,-8.52465,303.693
236.8000,-8.59753,304.062
236.7000,-8.72163,304.44
236.6000,-8.83876,304.819
236.5000,-8.98737,305.199
236.4000,-9.14343,305.586
236.3000,-9.29286,305.984
236.2000,-9.45868,306.39
236.1000,-9.67391,306.799
236.0000,-9.93195,307.211
235.9000,-10.1896,307.63
235.8000,-10.455,308.053
235.7000,-10.6944,308.48
235.6000,-10.9573,308.912
235.5000,-11.2013,309.351
235.4000,-11.4053,309.8
235.3000,-11.6374,310.255
235.2000,-11.8422,310.717
235.1000,-12.0581,311.187
235.0000,-12.2444,311.668
234.9000,-12.4606,312.162
234.8000,-12.6866,312.666
234.7000,-12.9341,313.171
234.6000,-13.1542,313.679
234.5000,-13.3635,314.199
234.4000,-13.5428,314.726
234.3000,-13.6855,315.261
234.2000,-13.8125,315.804
234.1000,-13.9386,316.353
234.0000,-14.1165,316.911
233.9000,-14.3013,317.474
233.8000,-14.4937,318.048
233.7000,-14.7058,318.627
233.6000,-14.9886,319.215
233.5000,-15.2574,319.805
233.4000,-15.4637,320.397
233.3000,-15.7383,320.989
233.2000,-16.0375,321.586
233.1000,-16.2649,322.192
233.0000,-16.4511,322.809
232.9000,-16.6707,323.432
232.8000,-16.8768,324.056
232.7000,-17.0217,324.685
232.6000,-17.2094,325.321
232.5000,-17.4938,325.959
232.4000,-17.7625,326.603
232.3000,-18.0302,327.249
232.2000,-18.2622,327.9
232.1000,-18.5484,328.545
232.0000,-18.8506,329.192
231.9000,-19.1167,329.844
231.8000,-19.4136,330.507
231.7000,-19.7661,331.172
231.6000,-20.0199,331.847
231.5000,-20.2787,332.518
231.4000,-20.6199,333.187
231.3000,-21.057,333.852
231.2000,-21.4261,334.521
231.1000,-21.7932,335.197
231.0000,-22.207,335.877
230.9000,-22.5494,336.557
230.8000,-22.8794,337.231
230.7000,-23.2159,337.906
230.6000,-23.4929,338.576
230.5000,-23.7653,339.246
230.4000,-24.0147,339.916
230.3000,-24.2879,340.581
230.2000,-24.5503,341.242
230.1000,-24.837,341.894
230.0000,-25.0694,342.547
229.9000,-25.3838,343.195
229.8000,-25.6294,343.845
229.7000,-25.8337,344.5
229.6000,-26.0652,345.156
229.5000,-26.3511,345.808
229.4000,-26.6887,346.455
229.3000,-27.0334,347.1
229.2000,-27.4364,347.741
229.1000,-27.8718,348.385
229.0000,-28.2349,349.03
228.9000,-28.5262,349.684
228.8000,-28.8627,350.345
228.7000,-29.2429,351.003
228.6000,-29.638,351.654
228.5000,-30.0452,352.304
228.4000,-30.3881,352.953
228.3000,-30.7623,353.591
228.2000,-31.0972,354.226
228.1000,-31.5241,354.862
228.0000,-31.9035,355.489
227.9000,-32.3228,356.105
227.8000,-32.7158,356.717
227.7000,-33.0595,357.329
227.6000,-33.384,357.94
227.5000,-33.6898,358.549
227.4000,-34.0104,359.153
227.3000,-34.4052,359.748
227.2000,-34.8404,360.339
227.1000,-35.2459,360.92
227.0000,-35.5386,361.505
226.9000,-35.9174,362.086
226.8000,-36.3309,362.663
226.7000,-36.8054,363.243
226.6000,-37.202,363.832
226.5000,-37.5868,364.419
226.4000,-37.9671,364.999
226.3000,-38.3525,365.581
226.2000,-38.6462,366.168
226.1000,-38.969,366.754
226.0000,-39.3188,367.328
225.9000,-39.7278,367.9
225.8000,-40.1134,368.468
225.7000,-40.4977,369.04
225.6000,-40.9323,369.612
225.5000,-41.3845,370.179
225.4000,-41.8564,370.741
225.3000,-42.325,371.302
225.2000,-42.7146,371.868
225.1000,-43.0555,372.43
225.0000,-43.4458,372.99
224.9000,-43.8584,373.545
224.8000,-44.3157,374.099
224.7000,-44.7754,374.652
224.6000,-45.2108,375.205
224.5000,-45.6743,375.757
224.4000,-45.97,376.319
224.3000,-46.3698,376.882
224.2000,-46.7287,377.442
224.1000,-47.0691,378.007
224.0000,-47.3778,378.572
223.9000,-47.7336,379.132
223.8000,-47.8547,379.702
223.7000,-48.0041,380.269
223.6000,-48.1088,380.837
223.5000,-48.2824,381.402
223.4000,-48.4622,381.973
223.3000,-48.539,382.554
223.2000,-48.7978,383.129
223.1000,-48.887,383.706
223.0000,-48.9188,384.288
222.9000,-49.0301,384.867
222.8000,-49.1201,385.449
222.7000,-49.3571,386.023
222.6000,-49.5269,386.599
222.5000,-49.6088,387.181
222.4000,-49.6062,387.757
222.3000,-49.7309,388.324
222.2000,-50.0029,388.888
222.1000,-50.4703,389.453
222.0000,-50.952,390.024
221.9000,-51.3041,390.601
221.8000,-51.5029,391.178
221.7000,-51.7729,391.745
221.6000,-52.0139,392.308
221.5000,-52.1447,392.88
221.4000,-52.3955,393.451
221.3000,-52.4917,394.025
221.2000,-52.6335,394.592
221.1000,-52.7775,395.155
221.0000,-52.8839,395.718
220.9000,-52.9944,396.286
220.8000,-53.2003,396.851
220.7000,-53.3608,397.425
220.6000,-53.4898,398.007
220.5000,-53.3683,398.6
220.4000,-53.0487,399.195
220.3000,-52.7444,399.789
220.2000,-52.6061,400.379
220.1000,-52.5367,400.969
220.0000,-52.4354,401.557
219.9000,-52.473,402.139
219.8000,-52.5484,402.717
219.7000,-52.5726,403.297
219.6000,-52.5838,403.878
219.5000,-52.5007,404.472
219.4000,-52.3697,405.075
219.3000,-52.2228,405.672
219.2000,-51.9902,406.264
219.1000,-51.8142,406.857
219.0000,-51.6597,407.454
218.9000,-51.4939,408.045
218.8000,-51.5469,408.627
218.7000,-51.7269,409.209
218.6000,-51.8447,409.793
218.5000,-51.9103,410.376
218.4000,-51.8748,410.969
218.3000,-51.7861,411.571
218.2000,-51.4236,412.185
218.1000,-51.0535,412.795
218.0000,-51.0232,413.396
217.9000,-50.9241,414.004
217.8000,-50.8951,414.609
217.7000,-50.9203,415.211
217.6000,-51.0396,415.827
217.5000,-51.1526,416.449
217.4000,-51.1762,417.071
217.3000,-51.1746,417.693
217.2000,-51.0726,418.319
217.1000,-51.1635,418.942
217.0000,-51.263,419.576
216.9000,-51.3167,420.222
216.8000,-51.483,420.87
216.7000,-51.8072,421.512
216.6000,-52.1785,422.154
216.5000,-52.6945,422.8
216.4000,-52.9859,423.467
216.3000,-53.1109,424.149
216.2000,-53.2928,424.83
216.1000,-53.4863,425.514
216.0000,-53.5924,426.215
215.9000,-53.6133,426.924
215.8000,-53.573,427.639
215.7000,-53.4621,428.366
215.6000,-53.2818,429.105
215.5000,-53.2265,429.851
215.4000,-53.0164,430.609
215.3000,-52.8479,431.37
215.2000,-52.6009,432.143
215.1000,-52.3995,432.927
215.0000,-52.2065,433.724
214.9000,-51.9401,434.533
214.8000,-51.7372,435.348
214.7000,-51.5469,436.177
214.6000,-51.3113,437.02
214.5000,-50.9526,437.879
214.4000,-50.8568,438.737
214.3000,-50.7292,439.608
214.2000,-50.527,440.501
214.1000,-50.4305,441.406
214.0000,-50.5968,442.312
213.9000,-50.9138,443.227
213.8000,-50.9444,444.166
213.7000,-51.0074,445.124
213.6000,-51.1208,446.097
213.5000,-51.2259,447.084
213.4000,-51.0577,448.096
213.3000,-50.6348,449.13
213.2000,-50.2101,450.18
213.1000,-49.8318,451.243
213.0000,-49.6774,452.306
212.9000,-49.6085,453.382
212.8000,-49.648,454.48
212.7000,-49.4646,455.599
212.6000,-49.4197,456.716
212.5000,-49.5281,457.845
212.4000,-49.4893,458.997
212.3000,-49.2195,460.176
212.2000,-48.8072,461.378
212.1000,-48.57,462.586
212.0000,-48.2161,463.808
211.9000,-47.8198,465.041
211.8000,-47.5324,466.287
211.7000,-47.2739,467.558
211.6000,-47.2834,468.843
211.5000,-47.4833,470.138
211.4000,-47.4018,471.455
211.3000,-47.332,472.793
211.2000,-47.3628,474.148
211.1000,-47.5051,475.513
211.0000,-47.5095,476.908
210.9000,-47.5167,478.337
210.8000,-47.3035,479.789
210.7000,-47.0449,481.262
210.6000,-46.991,482.747
210.5000,-47.0735,484.257
210.4000,-47.3451,485.793
210.3000,-47.3585,487.361
210.2000,-47.4395,488.958
210.1000,-47.6671,490.578
210.0000,-47.9506,492.214
209.9000,-47.971,493.892
209.8000,-47.9611,495.611
209.7000,-48.1007,497.357
209.6000,-47.9412,499.146
209.5000,-47.7753,500.967
209.4000,-47.4042,502.83
209.3000,-47.5054,504.707
209.2000,-47.6712,506.607
209.1000,-47.953,508.55
209.0000,-47.9497,510.55
208.9000,-48.0044,512.589
208.8000,-47.94,514.658
208.7000,-47.8333,516.765
208.6000,-47.9457,518.906
208.5000,-47.5919,521.097
208.4000,-47.4824,523.317
208.3000,-47.4226,525.576
208.2000,-47.2442,527.878
208.1000,-46.8578,530.22
208.0000,-45.907,532.621
207.9000,-45.1452,535.051
207.8000,-44.6384,537.516
207.7000,-44.042,540.033
207.6000,-43.246,542.601
207.5000,-42.5301,545.205
207.4000,-42.3939,547.822
207.3000,-42.3705,550.463
207.2000,-42.2878,553.151
207.1000,-42.4552,555.888
207.0000,-42.48,558.677
206.9000,-42.6832,561.505
206.8000,-42.6391,564.38
206.7000,-42.0091,567.321
206.6000,-41.4905,570.298
206.5000,-41.1991,573.314
206.4000,-40.6469,576.384
206.3000,-40.6389,579.487
206.2000,-40.527,582.648
206.1000,-40.2842,585.852
206.0000,-39.9086,589.101
205.9000,-39.1987,592.409
205.8000,-38.8993,595.764
205.7000,-38.5701,599.171
205.6000,-37.7346,602.657
205.5000,-37.0118,606.194
205.4000,-35.2842,609.801
205.3000,-33.2641,613.466
205.2000,-31.2692,617.189
205.1000,-29.7804,620.951
205.0000,-28.5277,624.756
204.9000,-27.1301,628.623
204.8000,-25.9094,632.534
204.7000,-24.2499,636.511
204.6000,-22.3982,640.557
204.5000,-20.49,644.649
204.4000,-19.3234,648.778
204.3000,-18.9733,652.931
204.2000,-18.5002,657.14
204.1000,-16.7079,661.435
204.0000,-16.0665,665.736
203.9000,-15.6698,670.054
203.8000,-14.0068,674.451
203.7000,-13.5682,678.859
203.6000,-13.3683,683.292
203.5000,-13.8682,687.725
203.4000,-13.5919,692.216
203.3000,-13.6474,696.725
203.2000,-13.7729,701.259
203.1000,-14.2028,705.823
203.0000,-15.1677,710.383
202.9000,-15.0368,714.975
202.8000,-14.009,719.6
202.7000,-11.1738,724.3
202.6000,-8.26489,728.994
202.5000,-4.9076,733.713
202.4000,-2.6144,738.387
202.3000,-0.228171,743.065
202.2000,0.392337,747.673
202.1000,2.09131,752.278
202.0000,3.36216,756.865
201.9000,3.20411,761.38
201.8000,4.44237,765.926
201.7000,7.50114,770.493
201.6000,9.05587,774.951
201.5000,10.8076,779.365
201.4000,12.6895,783.734
201.3000,12.868,788.02
201.2000,11.7272,792.226
201.1000,12.086,796.416
201.0000,10.9948,800.493
200.9000,8.85948,804.469
200.8000,4.26801,808.304
200.7000,-1.47301,812.023
200.6000,-4.76996,815.749
200.5000,-7.22121,819.456
200.4000,-7.75923,823.133
200.3000,-4.20711,826.849
200.2000,-4.51094,830.371
200.1000,-7.93687,833.712
200.0000,-12.3732,836.955
199.9000,-11.6199,840.294
199.8000,-17.026,843.357
199.7000,-20.0144,846.416
199.6000,-23.7156,849.354
199.5000,-25.9183,852.225
199.4000,-23.7601,855.181
199.3000,-24.6453,857.953
199.2000,-27.3573,860.604
199.1000,-26.47,855.418
199.0000,-22.4439,830.114
198.9000,-19.9869,825.15
198.8000,-14.9871,830.22
198.7000,-18.301,835.698
198.6000,-19.313,841.247
198.5000,-19.5264,846.741
198.4000,-12.7835,852.362
198.3000,-2.92034,858.011
198.2000,1.10784,863.448
198.1000,6.79636,868.782
198.0000,15.6342,874.196
197.9000,30.7613,879.782
197.8000,40.7315,885.092
197.7000,45.1033,890.204
197.6000,56.9522,895.393
197.5000,68.7538,900.633
197.4000,75.0537,921.419
197.3000,75.5339,951.296
197.2000,67.6235,957.306
197.1000,58.3546,958.552
197.0000,57.9411,959.759
196.9000,55.0906,960.753
196.8000,54.3331,961.666
196.7000,50.7568,962.48
196.6000,44.5317,963.156
196.5000,42.5323,963.732
196.4000,39.6679,964.345
196.3000,29.6035,964.671
196.2000,12.3551,964.698
196.1000,0.0485779,964.877
196.0000,-11.0549,964.949
195.9000,-24.2448,964.928
195.8000,-30.3675,965.117
195.7000,-33.4682,965.28
195.6000,-28.472,965.685
195.5000,-14.1388,966.28
195.4000,-8.53421,966.591
195.3000,-5.07127,966.789
195.2000,-4.5412,966.966
195.1000,-2.2966,967.154
195.0000,-3.8583,966.184
194.9000,-4.5981,945.632
194.8000,-4.76862,939.975
194.7000,-3.73783,942.816
194.6000,3.27137,946.562
194.5000,14.2355,950.549
194.4000,24.5514,954.6
194.3000,29.0182,958.544
194.2000,36.5491,962.608
194.1000,34.2594,966.346
194.0000,33.6126,970.08
193.9000,31.9873,973.843
193.8000,17.9742,977.274
193.7000,7.16919,980.685
193.6000,6.84495,984.432
193.5000,15.1273,988.436
193.4000,17.8877,992.35
193.3000,24.3401,1001.59
193.2000,26.588,1025.99
193.1000,28.2994,1030.28
193.0000,18.6189,1030.15
192.9000,1.98112,1029.24
192.8000,-13.4125,1028.17
192.7000,-26.2041,1027.07
192.6000,-36.89,1025.87
192.5000,-44.9072,1024.62
192.4000,-46.7777,1023.47
192.3000,-52.1274,1022.11
192.2000,-48.5847,1020.98
192.1000,-41.3587,1019.77
192.0000,-34.543,1018.48
191.9000,-30.4308,1017.03
191.8000,-35.288,1015.24
191.7000,-41.2361,1013.35
191.6000,-55.1266,1011.19
191.5000,-62.9653,1009.23
191.4000,-64.164,1007.49
191.3000,-61.543,1006
191.2000,-59.8084,1004.53
191.1000,-54.5038,1003.14
191.0000,-45.7394,1001.9
190.9000,-34.0314,1000.77
190.8000,-31.1388,999.441
190.7000,-27.3104,998.142
190.6000,-23.0314,996.949
190.5000,-21.4631,995.653
190.4000,-18.8199,994.447
190.3000,-21.1612,993.138
190.2000,-23.5928,991.849
190.1000,-22.4468,990.741
190.0000,-8.39868,990.059

##### Extended Information
[Comments]
Sample name,DL121 10C Dark
Comment
User,JM
Division
Company,UT Southwestern Medical Center at Dallas

[Detailed Information]
Creation date,5/1/2023 11:47 AM

Data array type,Linear data array * 2
Horizontal axis,Wavelength [nm]
Vertical axis(1),CD [mdeg]
Vertical axis(2),HT [V]
Start,250 nm
End,190 nm
Data interval,0.1 nm
Data points,601     

[Measurement Information]
Instrument name,Jasco CD
Model name,J-815
Serial No.,B064061168

Accessory,CDF-426S
Accessory S/N,A00861183
  Temperature,10.00 C
  Control sonsor,Holder
  Monitor sensor,Holder
  Start Mode,Keep target temperature +/-0.10 deg C while 5 seconds
  Cell length,10 mm

Measurement date,5/1/2023 11:47 AM

Photometric mode,CD, HT
Measure range,250 - 190 nm
Data pitch,0.1 nm
Sensitivity,Standard
D.I.T.,1 sec
Bandwidth,1.00 nm
Start mode,Immediately
Scanning speed,100 nm/min
Baseline correction,None
Shutter control,Manual
CD detector,PMT
PMT voltage,Auto
No. of cycle,1/3

Concentration,0.7 (w/v)%
Solvent,50mM nap04 ph 6.5 100mM NaF

