TITLE,DL121 25C Dark
DATA TYPE,
ORIGIN,JASCO
OWNER,
DATE,23/05/01
TIME,12:27:01
SPECTROMETER/DATA SYSTEM,
LOCALE,1033
RESOLUTION,
DELTAX,-0.1
XUNITS,NANOMETERS
YUNITS,CD [mdeg]
Y2UNITS,HT [V]
FIRSTX,  250.0000
LASTX,  190.0000
NPOINTS,     601
FIRSTY,    -1.11213
MAXY,    94.64666
MINY,   -61.69274
XYDATA
250.0000,-1.11213,285.721
249.9000,-1.10537,285.759
249.8000,-1.08715,285.802
249.7000,-0.99411,285.85
249.6000,-0.941037,285.894
249.5000,-0.906628,285.939
249.4000,-0.865628,285.979
249.3000,-0.869531,286.02
249.2000,-0.908194,286.061
249.1000,-0.92674,286.101
249.0000,-0.909354,286.143
248.9000,-0.920282,286.183
248.8000,-0.955237,286.226
248.7000,-0.976245,286.272
248.6000,-0.963089,286.325
248.5000,-0.923004,286.381
248.4000,-0.899408,286.43
248.3000,-0.871814,286.482
248.2000,-0.868243,286.531
248.1000,-0.892206,286.576
248.0000,-0.923349,286.625
247.9000,-0.952499,286.676
247.8000,-0.939005,286.729
247.7000,-0.937186,286.785
247.6000,-0.929941,286.843
247.5000,-0.893488,286.905
247.4000,-0.88949,286.968
247.3000,-0.91416,287.03
247.2000,-0.931921,287.095
247.1000,-0.964215,287.161
247.0000,-0.979141,287.225
246.9000,-0.996152,287.289
246.8000,-1.0343,287.352
246.7000,-1.05059,287.415
246.6000,-1.08276,287.478
246.5000,-1.10325,287.55
246.4000,-1.09585,287.626
246.3000,-1.12571,287.7
246.2000,-1.15244,287.776
246.1000,-1.23008,287.854
246.0000,-1.28261,287.929
245.9000,-1.34348,288.002
245.8000,-1.43665,288.073
245.7000,-1.48632,288.146
245.6000,-1.46182,288.226
245.5000,-1.461,288.305
245.4000,-1.52661,288.381
245.3000,-1.64027,288.456
245.2000,-1.72234,288.528
245.1000,-1.7776,288.607
245.0000,-1.8126,288.69
244.9000,-1.85006,288.776
244.8000,-1.90463,288.859
244.7000,-1.9395,288.947
244.6000,-1.94712,289.033
244.5000,-1.96142,289.122
244.4000,-1.97257,289.21
244.3000,-2.02125,289.301
244.2000,-2.03004,289.398
244.1000,-2.05789,289.496
244.0000,-2.12163,289.595
243.9000,-2.23758,289.689
243.8000,-2.2828,289.79
243.7000,-2.26713,289.9
243.6000,-2.23216,290.014
243.5000,-2.23315,290.132
243.4000,-2.2776,290.249
243.3000,-2.3303,290.366
243.2000,-2.4186,290.482
243.1000,-2.49951,290.599
243.0000,-2.59588,290.717
242.9000,-2.70633,290.839
242.8000,-2.78957,290.965
242.7000,-2.86462,291.093
242.6000,-2.93372,291.224
242.5000,-3.00645,291.359
242.4000,-3.04882,291.502
242.3000,-3.13514,291.644
242.2000,-3.22512,291.786
242.1000,-3.32083,291.925
242.0000,-3.41696,292.062
241.9000,-3.50832,292.2
241.8000,-3.57248,292.34
241.7000,-3.65521,292.485
241.6000,-3.70503,292.638
241.5000,-3.72335,292.795
241.4000,-3.73184,292.952
241.3000,-3.74675,293.111
241.2000,-3.75656,293.275
241.1000,-3.79373,293.445
241.0000,-3.85109,293.617
240.9000,-3.97086,293.788
240.8000,-4.07025,293.96
240.7000,-4.1783,294.131
240.6000,-4.23835,294.309
240.5000,-4.30172,294.494
240.4000,-4.3753,294.684
240.3000,-4.43167,294.884
240.2000,-4.4956,295.089
240.1000,-4.582,295.298
240.0000,-4.66132,295.507
239.9000,-4.76864,295.712
239.8000,-4.84022,295.928
239.7000,-4.95611,296.154
239.6000,-5.04516,296.383
239.5000,-5.10272,296.611
239.4000,-5.13993,296.841
239.3000,-5.19958,297.081
239.2000,-5.28735,297.327
239.1000,-5.40884,297.577
239.0000,-5.51376,297.832
238.9000,-5.62503,298.089
238.8000,-5.76505,298.351
238.7000,-5.96444,298.615
238.6000,-6.1719,298.882
238.5000,-6.38232,299.152
238.4000,-6.53631,299.431
238.3000,-6.69848,299.72
238.2000,-6.87398,300.014
238.1000,-7.07355,300.308
238.0000,-7.21797,300.606
237.9000,-7.4067,300.911
237.8000,-7.61992,301.226
237.7000,-7.82153,301.547
237.6000,-8.00118,301.868
237.5000,-8.11672,302.193
237.4000,-8.21966,302.522
237.3000,-8.39357,302.858
237.2000,-8.57409,303.203
237.1000,-8.6988,303.557
237.0000,-8.77275,303.915
236.9000,-8.83452,304.276
236.8000,-8.96249,304.643
236.7000,-9.11426,305.018
236.6000,-9.24477,305.403
236.5000,-9.42467,305.79
236.4000,-9.61993,306.179
236.3000,-9.82022,306.575
236.2000,-10.0223,306.98
236.1000,-10.2437,307.39
236.0000,-10.424,307.808
235.9000,-10.6354,308.235
235.8000,-10.8734,308.669
235.7000,-11.1011,309.107
235.6000,-11.2503,309.546
235.5000,-11.3994,309.99
235.4000,-11.5678,310.438
235.3000,-11.8033,310.897
235.2000,-12.064,311.364
235.1000,-12.2253,311.84
235.0000,-12.4256,312.315
234.9000,-12.6112,312.798
234.8000,-12.8019,313.292
234.7000,-13.0097,313.795
234.6000,-13.221,314.308
234.5000,-13.3698,314.827
234.4000,-13.4651,315.352
234.3000,-13.5874,315.883
234.2000,-13.7164,316.418
234.1000,-13.8393,316.963
234.0000,-13.9908,317.522
233.9000,-14.2172,318.087
233.8000,-14.4038,318.657
233.7000,-14.6196,319.234
233.6000,-14.8213,319.819
233.5000,-14.9947,320.408
233.4000,-15.1855,321.003
233.3000,-15.3544,321.605
233.2000,-15.5445,322.21
233.1000,-15.7249,322.821
233.0000,-15.9503,323.437
232.9000,-16.1837,324.054
232.8000,-16.5083,324.671
232.7000,-16.8813,325.291
232.6000,-17.2177,325.918
232.5000,-17.5525,326.553
232.4000,-17.9188,327.188
232.3000,-18.2783,327.826
232.2000,-18.5829,328.471
232.1000,-18.9266,329.118
232.0000,-19.1903,329.771
231.9000,-19.4081,330.433
231.8000,-19.6542,331.102
231.7000,-19.9212,331.77
231.6000,-20.18,332.435
231.5000,-20.4709,333.098
231.4000,-20.7937,333.762
231.3000,-21.1078,334.432
231.2000,-21.432,335.102
231.1000,-21.7416,335.778
231.0000,-22.0492,336.453
230.9000,-22.3431,337.126
230.8000,-22.6068,337.796
230.7000,-22.7964,338.472
230.6000,-22.9833,339.138
230.5000,-23.1694,339.806
230.4000,-23.3745,340.473
230.3000,-23.6139,341.129
230.2000,-23.9889,341.774
230.1000,-24.3706,342.418
230.0000,-24.7768,343.066
229.9000,-25.1689,343.713
229.8000,-25.5156,344.361
229.7000,-25.7957,345.012
229.6000,-26.1049,345.657
229.5000,-26.3533,346.303
229.4000,-26.5615,346.951
229.3000,-26.7882,347.603
229.2000,-27.1444,348.248
229.1000,-27.5095,348.896
229.0000,-27.9088,349.543
228.9000,-28.3055,350.191
228.8000,-28.7062,350.839
228.7000,-29.0825,351.488
228.6000,-29.4791,352.14
228.5000,-29.8031,352.792
228.4000,-30.1477,353.434
228.3000,-30.4509,354.074
228.2000,-30.7238,354.717
228.1000,-31.0132,355.358
228.0000,-31.344,355.992
227.9000,-31.6445,356.624
227.8000,-31.9741,357.247
227.7000,-32.3176,357.864
227.6000,-32.5874,358.478
227.5000,-32.8565,359.088
227.4000,-33.2008,359.693
227.3000,-33.5424,360.297
227.2000,-33.8649,360.9
227.1000,-34.1903,361.494
227.0000,-34.552,362.085
226.9000,-34.8764,362.671
226.8000,-35.1933,363.257
226.7000,-35.5472,363.843
226.6000,-35.9333,364.43
226.5000,-36.3599,365.018
226.4000,-36.8136,365.597
226.3000,-37.2466,366.176
226.2000,-37.6141,366.757
226.1000,-37.873,367.344
226.0000,-38.1361,367.928
225.9000,-38.4075,368.51
225.8000,-38.5987,369.096
225.7000,-38.8082,369.677
225.6000,-39.0637,370.253
225.5000,-39.4177,370.821
225.4000,-39.737,371.393
225.3000,-40.0194,371.964
225.2000,-40.291,372.535
225.1000,-40.6164,373.101
225.0000,-40.8725,373.669
224.9000,-41.1434,374.233
224.8000,-41.3774,374.8
224.7000,-41.5273,375.368
224.6000,-41.6597,375.937
224.5000,-41.9542,376.498
224.4000,-42.2606,377.06
224.3000,-42.5696,377.623
224.2000,-42.9186,378.185
224.1000,-43.3016,378.745
224.0000,-43.6072,379.312
223.9000,-43.8577,379.885
223.8000,-43.9551,380.466
223.7000,-44.0865,381.037
223.6000,-44.2256,381.603
223.5000,-44.365,382.171
223.4000,-44.4777,382.743
223.3000,-44.5629,383.32
223.2000,-44.5882,383.894
223.1000,-44.657,384.466
223.0000,-44.8196,385.035
222.9000,-45.0272,385.602
222.8000,-45.2667,386.167
222.7000,-45.5835,386.732
222.6000,-45.8245,387.3
222.5000,-46.0263,387.87
222.4000,-46.1879,388.432
222.3000,-46.3755,388.989
222.2000,-46.5959,389.544
222.1000,-46.9131,390.099
222.0000,-47.1902,390.664
221.9000,-47.3687,391.23
221.8000,-47.5275,391.797
221.7000,-47.6967,392.364
221.6000,-47.8151,392.931
221.5000,-47.9975,393.497
221.4000,-48.2114,394.061
221.3000,-48.3814,394.628
221.2000,-48.5067,395.2
221.1000,-48.4672,395.773
221.0000,-48.5094,396.339
220.9000,-48.503,396.91
220.8000,-48.416,397.487
220.7000,-48.3967,398.063
220.6000,-48.52,398.633
220.5000,-48.6482,399.204
220.4000,-48.697,399.781
220.3000,-48.7811,400.364
220.2000,-48.9531,400.944
220.1000,-49.1804,401.519
220.0000,-49.4892,402.084
219.9000,-49.7879,402.652
219.8000,-49.8701,403.231
219.7000,-49.9488,403.814
219.6000,-49.9338,404.401
219.5000,-50.1023,404.979
219.4000,-50.2715,405.556
219.3000,-50.4253,406.135
219.2000,-50.6447,406.708
219.1000,-50.9859,407.281
219.0000,-51.2746,407.864
218.9000,-51.4365,408.458
218.8000,-51.6395,409.049
218.7000,-51.766,409.632
218.6000,-51.7895,410.217
218.5000,-51.74,410.812
218.4000,-51.6146,411.413
218.3000,-51.4153,412.022
218.2000,-51.3225,412.624
218.1000,-51.2396,413.227
218.0000,-51.1818,413.833
217.9000,-51.1106,414.439
217.8000,-50.9132,415.051
217.7000,-50.7339,415.666
217.6000,-50.5718,416.288
217.5000,-50.3733,416.915
217.4000,-50.0873,417.549
217.3000,-49.6817,418.185
217.2000,-49.412,418.819
217.1000,-49.2015,419.455
217.0000,-49.1039,420.1
216.9000,-49.0625,420.749
216.8000,-49.0287,421.405
216.7000,-48.8861,422.07
216.6000,-48.8551,422.738
216.5000,-48.9552,423.408
216.4000,-49.0145,424.084
216.3000,-48.9333,424.776
216.2000,-48.9002,425.476
216.1000,-48.9042,426.191
216.0000,-48.9467,426.912
215.9000,-48.9664,427.638
215.8000,-48.8955,428.374
215.7000,-48.8239,429.113
215.6000,-48.7376,429.856
215.5000,-48.5488,430.618
215.4000,-48.3857,431.39
215.3000,-48.2605,432.17
215.2000,-48.0886,432.954
215.1000,-47.931,433.743
215.0000,-47.8916,434.537
214.9000,-47.6995,435.35
214.8000,-47.5419,436.182
214.7000,-47.502,437.016
214.6000,-47.5263,437.852
214.5000,-47.5137,438.701
214.4000,-47.6057,439.558
214.3000,-47.5066,440.437
214.2000,-47.4482,441.327
214.1000,-47.3291,442.236
214.0000,-47.2487,443.161
213.9000,-47.1744,444.099
213.8000,-47.1293,445.046
213.7000,-47.0762,446.009
213.6000,-46.9714,446.986
213.5000,-46.8608,447.986
213.4000,-46.9387,448.997
213.3000,-46.952,450.019
213.2000,-46.9166,451.049
213.1000,-46.6978,452.097
213.0000,-46.6296,453.167
212.9000,-46.4905,454.263
212.8000,-46.1656,455.377
212.7000,-46.0161,456.496
212.6000,-46.0329,457.625
212.5000,-46.1013,458.772
212.4000,-46.2082,459.928
212.3000,-46.26,461.11
212.2000,-46.2134,462.317
212.1000,-46.2194,463.536
212.0000,-46.0769,464.775
211.9000,-45.9826,466.031
211.8000,-45.7435,467.31
211.7000,-45.4443,468.614
211.6000,-45.4257,469.926
211.5000,-45.2707,471.264
211.4000,-45.2684,472.614
211.3000,-45.1075,473.982
211.2000,-45.102,475.369
211.1000,-45.3113,476.773
211.0000,-45.1988,478.211
210.9000,-45.2348,479.664
210.8000,-45.3467,481.134
210.7000,-45.5507,482.628
210.6000,-45.8941,484.136
210.5000,-46.0573,485.679
210.4000,-46.0929,487.252
210.3000,-46.486,488.839
210.2000,-47.0147,490.45
210.1000,-47.3125,492.102
210.0000,-47.1657,493.801
209.9000,-46.6935,495.543
209.8000,-46.1647,497.319
209.7000,-46.0728,499.109
209.6000,-46.4387,500.916
209.5000,-46.6937,502.755
209.4000,-47.037,504.624
209.3000,-47.4165,506.527
209.2000,-47.5883,508.472
209.1000,-47.1208,510.473
209.0000,-46.5049,512.517
208.9000,-46.2848,514.591
208.8000,-46.4369,516.687
208.7000,-46.1965,518.841
208.6000,-45.6966,521.045
208.5000,-45.1823,523.287
208.4000,-44.754,525.555
208.3000,-44.9723,527.836
208.2000,-45.3079,530.153
208.1000,-45.5197,532.511
208.0000,-45.2622,534.924
207.9000,-44.7787,537.392
207.8000,-44.2297,539.91
207.7000,-43.6059,542.477
207.6000,-42.9234,545.087
207.5000,-42.6733,547.724
207.4000,-43.0761,550.386
207.3000,-43.3472,553.087
207.2000,-43.1897,555.854
207.1000,-42.9114,558.678
207.0000,-43.1761,561.522
206.9000,-42.6636,564.429
206.8000,-42.1646,567.38
206.7000,-42.5263,570.36
206.6000,-42.4278,573.404
206.5000,-41.8821,576.515
206.4000,-41.7239,579.666
206.3000,-41.3847,582.869
206.2000,-40.9223,586.126
206.1000,-40.6826,589.419
206.0000,-40.1627,592.772
205.9000,-39.5085,596.177
205.8000,-38.2007,599.658
205.7000,-36.7295,603.195
205.6000,-36.0124,606.762
205.5000,-35.2036,610.378
205.4000,-33.8429,614.05
205.3000,-32.5599,617.778
205.2000,-32.1341,621.539
205.1000,-32.5626,625.32
205.0000,-31.8768,629.182
204.9000,-30.8518,633.114
204.8000,-29.9086,637.1
204.7000,-28.6537,641.143
204.6000,-27.8415,645.235
204.5000,-27.9716,649.348
204.4000,-27.2621,653.543
204.3000,-27.0682,657.761
204.2000,-27.2603,662.029
204.1000,-27.4347,666.34
204.0000,-25.6749,670.752
203.9000,-23.7121,675.201
203.8000,-21.7017,679.689
203.7000,-21.3394,684.176
203.6000,-22.385,688.642
203.5000,-22.8719,693.158
203.4000,-22.4403,697.739
203.3000,-21.2361,702.374
203.2000,-20.5561,707.002
203.1000,-20.9894,711.612
203.0000,-21.8259,716.222
202.9000,-23.0484,720.824
202.8000,-23.0949,725.455
202.7000,-23.5161,730.071
202.6000,-23.6281,734.703
202.5000,-23.5202,739.342
202.4000,-22.7617,744
202.3000,-25.4819,748.525
202.2000,-29.0312,753.009
202.1000,-29.5027,757.57
202.0000,-27.1999,762.189
201.9000,-23.1305,766.841
201.8000,-19.9303,771.422
201.7000,-16.7284,775.966
201.6000,-15.6446,780.408
201.5000,-18.6731,784.662
201.4000,-23.339,788.791
201.3000,-24.6769,792.992
201.2000,-19.0404,797.361
201.1000,-17.6192,801.538
201.0000,-17.2599,805.605
200.9000,-17.2661,809.603
200.8000,-15.8323,813.55
200.7000,-16.676,817.364
200.6000,-14.7201,821.186
200.5000,-11.7649,824.97
200.4000,-12.9918,828.545
200.3000,-20.2115,831.838
200.2000,-25.7938,835.11
200.1000,-30.7069,838.333
200.0000,-34.0126,841.517
199.9000,-32.7059,844.727
199.8000,-31.4842,847.921
199.7000,-27.2753,851.14
199.6000,-33.173,853.943
199.5000,-38.4658,848.767
199.4000,-37.0934,826.409
199.3000,-38.2056,825.461
199.2000,-45.6283,830.548
199.1000,-51.9126,836.047
199.0000,-55.6117,841.65
198.9000,-60.3439,847.143
198.8000,-61.6927,852.652
198.7000,-56.9659,858.277
198.6000,-50.6625,863.885
198.5000,-39.5868,869.554
198.4000,-33.4523,875.046
198.3000,-29.0777,880.369
198.2000,-22.9179,885.719
198.1000,-22.8413,890.745
198.0000,-18.8109,895.849
197.9000,-11.5289,901.128
197.8000,-10.1965,921.883
197.7000,-11.2131,946.957
197.6000,-7.75704,951.473
197.5000,0.239633,953.406
197.4000,5.01284,954.95
197.3000,8.21131,956.307
197.2000,2.61978,957.288
197.1000,-3.40776,958
197.0000,-4.17123,958.911
196.9000,-7.01515,952.063
196.8000,-9.99143,933.054
196.7000,-11.7423,934.243
196.6000,-13.6695,938.447
196.5000,-14.8849,942.846
196.4000,-8.05136,947.495
196.3000,-9.01956,951.802
196.2000,-10.1692,956.034
196.1000,-6.4871,960.387
196.0000,-3.18157,964.658
195.9000,-0.40163,968.812
195.8000,1.04405,972.949
195.7000,2.3639,977.004
195.6000,8.0766,981.177
195.5000,11.1159,985.298
195.4000,13.2362,989.565
195.3000,9.71956,993.445
195.2000,8.35546,1013.51
195.1000,10.5031,1029.58
195.0000,14.7085,1031.13
194.9000,20.9181,1031.49
194.8000,26.146,1031.65
194.7000,31.1884,1031.8
194.6000,33.916,1031.88
194.5000,32.8643,1031.85
194.4000,22.947,1031.53
194.3000,16.9533,1031.34
194.2000,16.2161,1031.31
194.1000,22.3283,1031.48
194.0000,30.9275,1031.73
193.9000,42.0605,1032.06
193.8000,55.3823,1032.45
193.7000,67.336,1032.81
193.6000,75.7854,1033.03
193.5000,80.345,1032.94
193.4000,80.3462,1032.49
193.3000,74.8829,1031.44
193.2000,69.7545,1030.09
193.1000,61.2451,1028.5
193.0000,55.1642,1026.72
192.9000,48.6012,1024.78
192.8000,45.8493,1022.89
192.7000,56.132,1021.24
192.6000,64.0673,1019.52
192.5000,67.2128,1017.59
192.4000,62.758,1015.37
192.3000,57.8026,1012.97
192.2000,47.9756,1010.39
192.1000,40.8579,1007.89
192.0000,30.7203,1005.23
191.9000,16.0465,1002.34
191.8000,2.39335,999.816
191.7000,-5.96077,997.734
191.6000,-9.82105,996.111
191.5000,-11.8904,994.742
191.4000,-9.14873,993.735
191.3000,-4.03299,992.984
191.2000,7.80257,992.543
191.1000,20.8648,992.122
191.0000,27.0954,991.671
190.9000,31.9357,991.21
190.8000,36.45,990.59
190.7000,41.1422,990.167
190.6000,40.1578,989.774
190.5000,44.9957,989.43
190.4000,52.3453,989.327
190.3000,65.0946,989.378
190.2000,80.3909,989.549
190.1000,90.157,989.602
190.0000,94.6467,989.465

##### Extended Information
[Comments]
Sample name,DL121 25C Dark
Comment
User,JM
Division
Company,UT Southwestern Medical Center at Dallas

[Detailed Information]
Creation date,5/1/2023 12:27 PM

Data array type,Linear data array * 2
Horizontal axis,Wavelength [nm]
Vertical axis(1),CD [mdeg]
Vertical axis(2),HT [V]
Start,250 nm
End,190 nm
Data interval,0.1 nm
Data points,601     

[Measurement Information]
Instrument name,Jasco CD
Model name,J-815
Serial No.,B064061168

Accessory,CDF-426S
Accessory S/N,A00861183
  Temperature,24.99 C
  Control sonsor,Holder
  Monitor sensor,Holder
  Start Mode,Keep target temperature +/-0.10 deg C while 5 seconds
  Cell length,10 mm

Measurement date,5/1/2023 12:27 PM

Photometric mode,CD, HT
Measure range,250 - 190 nm
Data pitch,0.1 nm
Sensitivity,Standard
D.I.T.,1 sec
Bandwidth,1.00 nm
Start mode,Immediately
Scanning speed,100 nm/min
Baseline correction,None
Shutter control,Manual
CD detector,PMT
PMT voltage,Auto
No. of cycle,1/3

Concentration,0.7 (w/v)%
Solvent,50mM nap04 ph 6.5 100mM NaF

