TITLE,DL121 15C Lit - Reverse
DATA TYPE,
ORIGIN,JASCO
OWNER,
DATE,23/05/01
TIME,16:30:07
SPECTROMETER/DATA SYSTEM,
LOCALE,1033
RESOLUTION,
DELTAX,-0.1
XUNITS,NANOMETERS
YUNITS,CD [mdeg]
Y2UNITS,HT [V]
FIRSTX,  250.0000
LASTX,  190.0000
NPOINTS,     601
FIRSTY,    -0.86693
MAXY,    82.88029
MINY,   -57.17434
XYDATA
250.0000,-0.866925,306.314
249.9000,-0.834189,306.396
249.8000,-0.829569,306.488
249.7000,-0.853683,306.579
249.6000,-0.901978,306.664
249.5000,-0.982779,306.753
249.4000,-1.04295,306.84
249.3000,-1.10732,306.929
249.2000,-1.15156,307.026
249.1000,-1.15192,307.124
249.0000,-1.16054,307.22
248.9000,-1.14461,307.317
248.8000,-1.07771,307.418
248.7000,-1.02632,307.518
248.6000,-1.00215,307.617
248.5000,-0.978516,307.719
248.4000,-1.00146,307.82
248.3000,-1.03381,307.928
248.2000,-1.04008,308.035
248.1000,-1.029,308.134
248.0000,-1.01917,308.235
247.9000,-1.05892,308.335
247.8000,-1.06662,308.44
247.7000,-1.03722,308.549
247.6000,-1.00568,308.659
247.5000,-1.04782,308.76
247.4000,-1.09516,308.863
247.3000,-1.13022,308.973
247.2000,-1.1951,309.085
247.1000,-1.28055,309.196
247.0000,-1.3452,309.309
246.9000,-1.44297,309.425
246.8000,-1.58022,309.539
246.7000,-1.66404,309.654
246.6000,-1.77209,309.766
246.5000,-1.86639,309.889
246.4000,-1.95653,310.017
246.3000,-2.01123,310.145
246.2000,-2.01689,310.276
246.1000,-2.04045,310.411
246.0000,-2.0661,310.554
245.9000,-2.05416,310.703
245.8000,-2.06024,310.849
245.7000,-2.05576,310.988
245.6000,-2.04527,311.125
245.5000,-2.07922,311.261
245.4000,-2.12872,311.397
245.3000,-2.18094,311.531
245.2000,-2.18457,311.667
245.1000,-2.20515,311.811
245.0000,-2.26916,311.954
244.9000,-2.31369,312.098
244.8000,-2.33727,312.238
244.7000,-2.39145,312.385
244.6000,-2.4566,312.537
244.5000,-2.50779,312.693
244.4000,-2.55033,312.841
244.3000,-2.59631,312.983
244.2000,-2.70075,313.124
244.1000,-2.7814,313.276
244.0000,-2.87977,313.434
243.9000,-2.93617,313.594
243.8000,-2.96637,313.762
243.7000,-3.03123,313.933
243.6000,-3.07093,314.108
243.5000,-3.095,314.285
243.4000,-3.08073,314.465
243.3000,-3.05386,314.646
243.2000,-3.04044,314.828
243.1000,-3.0436,315.009
243.0000,-3.03817,315.188
242.9000,-3.03743,315.369
242.8000,-3.09922,315.553
242.7000,-3.19392,315.744
242.6000,-3.38264,315.461
242.5000,-3.50344,308.035
242.4000,-3.48486,298.574
242.3000,-3.43431,293.049
242.2000,-3.31796,288.262
242.1000,-3.14816,287.74
242.0000,-3.03092,287.937
241.9000,-2.97325,288.16
241.8000,-2.93989,288.382
241.7000,-2.94001,288.603
241.6000,-3.05219,288.828
241.5000,-3.17585,289.058
241.4000,-3.27793,289.296
241.3000,-3.3513,289.537
241.2000,-3.4303,289.776
241.1000,-3.46443,290.019
241.0000,-3.51823,290.269
240.9000,-3.4842,292.59
240.8000,-3.55934,302.91
240.7000,-3.73674,310.819
240.6000,-3.97454,316.59
240.5000,-4.28759,320.539
240.4000,-4.57414,321.059
240.3000,-4.80702,321.333
240.2000,-5.00519,321.604
240.1000,-5.19425,321.88
240.0000,-5.33466,322.161
239.9000,-5.36388,322.45
239.8000,-5.42089,322.744
239.7000,-5.50022,323.042
239.6000,-5.64617,323.345
239.5000,-5.72638,323.656
239.4000,-5.78583,323.972
239.3000,-5.80908,324.295
239.2000,-5.84209,324.628
239.1000,-5.91135,324.968
239.0000,-6.00045,325.304
238.9000,-6.10074,325.647
238.8000,-6.22845,325.995
238.7000,-6.31783,326.346
238.6000,-6.38355,326.701
238.5000,-6.45503,327.069
238.4000,-6.49883,327.446
238.3000,-6.5799,327.83
238.2000,-6.65898,328.218
238.1000,-6.68244,328.607
238.0000,-6.663,329.001
237.9000,-6.60638,329.403
237.8000,-6.69912,329.81
237.7000,-6.8687,330.222
237.6000,-7.02897,330.634
237.5000,-7.15661,331.05
237.4000,-7.25646,331.476
237.3000,-7.31657,331.912
237.2000,-7.37693,332.352
237.1000,-7.46355,332.801
237.0000,-7.62211,333.25
236.9000,-7.75776,333.704
236.8000,-7.91311,334.163
236.7000,-8.01541,334.63
236.6000,-8.12088,335.104
236.5000,-8.2698,335.59
236.4000,-8.52733,336.088
236.3000,-8.76797,336.596
236.2000,-8.97007,337.115
236.1000,-9.12657,337.64
236.0000,-9.27127,338.172
235.9000,-9.34918,338.713
235.8000,-9.44594,339.26
235.7000,-9.55064,339.81
235.6000,-9.68773,340.368
235.5000,-9.86569,340.928
235.4000,-9.94081,341.496
235.3000,-9.98692,342.074
235.2000,-10.1081,342.661
235.1000,-10.2652,343.26
235.0000,-10.4347,343.864
234.9000,-10.5964,344.475
234.8000,-10.7356,345.093
234.7000,-10.8447,345.713
234.6000,-10.9454,346.336
234.5000,-11.0508,346.964
234.4000,-11.1306,347.599
234.3000,-11.2024,348.247
234.2000,-11.3879,348.905
234.1000,-11.5508,349.571
234.0000,-11.6851,350.249
233.9000,-11.7851,350.936
233.8000,-11.8459,351.634
233.7000,-11.9987,352.34
233.6000,-12.136,353.055
233.5000,-12.2391,353.775
233.4000,-12.3567,354.498
233.3000,-12.4548,355.232
233.2000,-12.5686,355.975
233.1000,-12.6103,356.727
233.0000,-12.7074,357.483
232.9000,-12.9504,358.247
232.8000,-13.154,359.022
232.7000,-13.3832,359.803
232.6000,-13.5877,360.583
232.5000,-13.7067,361.369
232.4000,-13.8064,362.158
232.3000,-13.9261,362.952
232.2000,-14.1057,363.754
232.1000,-14.3701,364.563
232.0000,-14.6232,365.382
231.9000,-14.9052,366.2
231.8000,-15.1897,367.024
231.7000,-15.5361,367.85
231.6000,-15.8421,368.679
231.5000,-16.1899,369.515
231.4000,-16.5629,370.358
231.3000,-16.8018,371.211
231.2000,-16.9609,372.06
231.1000,-17.1751,372.906
231.0000,-17.3536,373.758
230.9000,-17.5216,374.627
230.8000,-17.7715,375.496
230.7000,-18.1925,376.365
230.6000,-18.5601,377.236
230.5000,-18.7999,378.107
230.4000,-18.8852,378.982
230.3000,-18.9677,379.852
230.2000,-19.0464,380.726
230.1000,-19.0956,381.601
230.0000,-19.1526,382.478
229.9000,-19.3067,383.348
229.8000,-19.5274,384.214
229.7000,-19.858,385.083
229.6000,-20.2533,385.958
229.5000,-20.568,386.84
229.4000,-20.7823,387.727
229.3000,-21.0792,388.609
229.2000,-21.3991,389.479
229.1000,-21.5559,390.362
229.0000,-21.6018,391.252
228.9000,-21.799,392.147
228.8000,-22.0466,393.046
228.7000,-22.4484,393.935
228.6000,-22.7288,394.828
228.5000,-22.969,395.725
228.4000,-23.3009,396.618
228.3000,-23.5388,397.51
228.2000,-23.6077,398.412
228.1000,-23.52,399.308
228.0000,-23.5429,400.189
227.9000,-23.561,401.062
227.8000,-23.6534,401.931
227.7000,-23.8539,402.798
227.6000,-23.9143,403.673
227.5000,-23.9571,404.544
227.4000,-24.0853,405.405
227.3000,-24.3261,406.25
227.2000,-24.4964,407.09
227.1000,-24.6552,407.934
227.0000,-24.7817,408.781
226.9000,-25.0079,409.624
226.8000,-25.1843,410.465
226.7000,-25.3226,411.308
226.6000,-25.633,412.143
226.5000,-25.9675,412.99
226.4000,-26.3707,413.847
226.3000,-26.616,414.712
226.2000,-26.881,415.585
226.1000,-27.2493,416.45
226.0000,-27.6718,417.307
225.9000,-28.0937,418.164
225.8000,-28.51,419.023
225.7000,-28.7415,419.89
225.6000,-28.9312,420.763
225.5000,-28.8137,419.865
225.4000,-28.1352,408.199
225.3000,-27.0166,389.721
225.2000,-25.7342,368.071
225.1000,-24.3072,344.812
225.0000,-22.7992,331.258
224.9000,-21.6048,331.107
224.8000,-20.9672,331.915
224.7000,-20.6113,332.792
224.6000,-20.3315,333.677
224.5000,-20.3079,334.549
224.4000,-20.3258,335.42
224.3000,-20.5003,336.284
224.2000,-20.8448,337.146
224.1000,-21.1571,338.011
224.0000,-21.4562,338.876
223.9000,-21.8261,339.742
223.8000,-22.7754,345.428
223.7000,-24.1802,361.698
223.6000,-25.9091,383.231
223.5000,-28.0232,407.262
223.4000,-30.167,432.448
223.3000,-32.2723,440.284
223.2000,-33.9463,441.544
223.1000,-35.0933,442.414
223.0000,-35.8941,443.256
222.9000,-36.4851,444.099
222.8000,-36.7702,444.955
222.7000,-37.101,445.813
222.6000,-37.421,446.677
222.5000,-37.5921,447.549
222.4000,-37.6756,448.425
222.3000,-37.8769,449.294
222.2000,-38.0667,450.162
222.1000,-38.1351,451.038
222.0000,-38.1416,451.925
221.9000,-38.2237,452.814
221.8000,-38.1361,453.702
221.7000,-38.1214,454.587
221.6000,-37.9739,455.478
221.5000,-37.8317,456.368
221.4000,-37.9946,457.249
221.3000,-38.121,458.134
221.2000,-38.3457,459.016
221.1000,-38.4373,459.897
221.0000,-38.4583,460.775
220.9000,-38.3304,461.657
220.8000,-38.3571,462.529
220.7000,-38.4927,463.406
220.6000,-38.4944,464.295
220.5000,-38.3672,465.194
220.4000,-38.312,466.095
220.3000,-38.2707,466.992
220.2000,-38.2784,467.885
220.1000,-38.1436,468.792
220.0000,-38.0527,469.704
219.9000,-37.9943,470.619
219.8000,-38.0829,471.531
219.7000,-38.1868,472.438
219.6000,-38.5014,473.34
219.5000,-38.9468,474.245
219.4000,-39.3037,475.171
219.3000,-39.6856,476.096
219.2000,-40.0676,477.027
219.1000,-40.3913,477.971
219.0000,-40.6331,478.922
218.9000,-40.8251,479.871
218.8000,-41.0354,480.822
218.7000,-41.5726,481.755
218.6000,-41.9637,482.695
218.5000,-42.3123,483.644
218.4000,-42.8218,484.59
218.3000,-43.3556,485.548
218.2000,-43.8845,486.506
218.1000,-44.0567,487.481
218.0000,-44.2454,488.462
217.9000,-44.2229,489.459
217.8000,-44.0312,490.471
217.7000,-44.041,491.481
217.6000,-44.1056,492.498
217.5000,-43.907,493.52
217.4000,-43.4742,494.546
217.3000,-43.3649,495.568
217.2000,-43.4422,496.597
217.1000,-43.6293,497.633
217.0000,-43.6087,498.691
216.9000,-43.4195,499.767
216.8000,-43.3775,500.847
216.7000,-43.273,501.942
216.6000,-43.2765,503.049
216.5000,-43.2535,504.175
216.4000,-43.5024,505.311
216.3000,-43.4291,506.471
216.2000,-43.2586,507.649
216.1000,-43.0042,508.84
216.0000,-42.4924,510.044
215.9000,-41.7669,511.269
215.8000,-41.4769,512.496
215.7000,-41.5209,513.731
215.6000,-41.8236,514.969
215.5000,-41.9883,516.223
215.4000,-41.5027,517.51
215.3000,-41.2799,518.798
215.2000,-41.3557,520.094
215.1000,-41.3782,521.398
215.0000,-41.2056,522.706
214.9000,-40.9765,524.018
214.8000,-40.8938,525.336
214.7000,-40.8448,526.669
214.6000,-40.9839,528.011
214.5000,-41.1244,529.358
214.4000,-40.9119,530.725
214.3000,-40.9394,532.104
214.2000,-41.3929,533.488
214.1000,-41.6568,534.894
214.0000,-41.4986,536.327
213.9000,-40.743,537.8
213.8000,-40.3188,539.278
213.7000,-40.1951,540.774
213.6000,-40.1578,542.295
213.5000,-40.3236,543.822
213.4000,-40.5968,545.364
213.3000,-40.8662,546.936
213.2000,-41.0375,548.53
213.1000,-40.7377,550.153
213.0000,-40.1884,551.799
212.9000,-40.2056,553.449
212.8000,-40.5567,555.111
212.7000,-41.61,556.781
212.6000,-41.9198,558.497
212.5000,-41.9699,560.247
212.4000,-41.9747,562.03
212.3000,-41.6019,563.846
212.2000,-41.2625,565.674
212.1000,-40.3195,567.537
212.0000,-39.6316,569.407
211.9000,-39.2931,571.289
211.8000,-38.6574,573.21
211.7000,-38.0313,575.156
211.6000,-37.6846,577.109
211.5000,-37.7166,579.065
211.4000,-37.4411,581.06
211.3000,-37.3299,583.074
211.2000,-36.9971,585.117
211.1000,-36.2863,587.194
211.0000,-35.3894,589.296
210.9000,-35.1256,591.406
210.8000,-35.4975,593.508
210.7000,-35.9967,595.627
210.6000,-36.5122,597.77
210.5000,-37.7747,599.925
210.4000,-38.9261,602.123
210.3000,-39.0795,604.379
210.2000,-38.5999,606.676
210.1000,-39.2327,608.971
210.0000,-39.8526,611.299
209.9000,-39.8859,613.688
209.8000,-39.7807,616.123
209.7000,-40.2261,618.573
209.6000,-40.2446,621.072
209.5000,-39.503,623.638
209.4000,-38.6682,626.237
209.3000,-37.6147,628.874
209.2000,-36.0853,631.562
209.1000,-34.1037,634.3
209.0000,-33.0665,637.053
208.9000,-33.0356,639.81
208.8000,-33.0393,642.602
208.7000,-32.7569,645.445
208.6000,-32.9241,648.316
208.5000,-31.769,651.273
208.4000,-30.4334,648.122
208.3000,-28.5457,627.115
208.2000,-26.7047,597.376
208.1000,-24.7105,563.466
208.0000,-22.2193,527.378
207.9000,-20.2315,490.048
207.8000,-18.7723,465.26
207.7000,-17.8375,464.664
207.6000,-18.2122,468.16
207.5000,-18.4251,472.094
207.4000,-19.5033,476.014
207.3000,-20.587,479.899
207.2000,-21.3696,483.78
207.1000,-22.264,487.651
207.0000,-22.9253,491.514
206.9000,-22.8914,495.39
206.8000,-22.8462,499.297
206.7000,-22.9767,515.845
206.6000,-26.1369,547.379
206.5000,-28.589,585.751
206.4000,-31.3362,627.524
206.3000,-35.8018,671.104
206.2000,-40.6031,715.424
206.1000,-46.8969,736.422
206.0000,-49.8928,741.798
205.9000,-51.008,745.384
205.8000,-54.4414,748.754
205.7000,-56.9759,752.224
205.6000,-56.4116,755.895
205.5000,-52.9279,759.712
205.4000,-47.4685,763.648
205.3000,-44.1668,767.555
205.2000,-44.5739,771.393
205.1000,-47.2569,775.215
205.0000,-49.1738,779.062
204.9000,-48.4047,783.042
204.8000,-45.1363,787.075
204.7000,-42.5372,791.084
204.6000,-36.6946,795.197
204.5000,-31.689,799.249
204.4000,-28.3672,803.232
204.3000,-25.9823,807.154
204.2000,-25.0052,811.013
204.1000,-23.1096,814.907
204.0000,-24.2192,818.681
203.9000,-25.2848,822.404
203.8000,-31.5167,825.936
203.7000,-37.2275,829.453
203.6000,-40.7894,832.997
203.5000,-42.5669,836.559
203.4000,-44.584,840.051
203.3000,-48.0156,843.455
203.2000,-51.4736,846.792
203.1000,-57.1743,849.976
203.0000,-57.1408,853.28
202.9000,-56.6776,856.524
202.8000,-48.9455,859.924
202.7000,-43.8391,863.141
202.6000,-39.6234,866.221
202.5000,-32.7486,869.293
202.4000,-26.2818,872.249
202.3000,-17.0999,875.169
202.2000,-7.75778,878.052
202.1000,5.94375,880.932
202.0000,14.7283,883.541
201.9000,19.992,885.947
201.8000,25.1901,888.192
201.7000,30.1513,890.355
201.6000,33.9155,892.368
201.5000,40.3473,894.372
201.4000,47.9076,896.345
201.3000,54.5568,898.124
201.2000,62.4491,899.772
201.1000,62.3204,901.141
201.0000,64.5197,902.469
200.9000,63.895,903.603
200.8000,64.8528,904.706
200.7000,63.2261,905.716
200.6000,63.2413,906.735
200.5000,51.1372,907.267
200.4000,37.8769,907.726
200.3000,35.9515,908.521
200.2000,39.5881,909.456
200.1000,41.6754,910.003
200.0000,43.1487,899.215
199.9000,44.364,896.617
199.8000,43.5934,894.269
199.7000,36.0241,889.933
199.6000,27.8181,885.221
199.5000,16.3252,880.52
199.4000,11.4376,875.722
199.3000,8.79365,871.164
199.2000,7.08397,865.668
199.1000,2.03361,859.946
199.0000,-4.27686,853.512
198.9000,-8.45164,848.176
198.8000,-1.24772,846.749
198.7000,0.064212,821.675
198.6000,-0.288467,795.663
198.5000,-6.75492,795.638
198.4000,-7.60399,803.106
198.3000,-11.019,817.887
198.2000,-8.44977,825.386
198.1000,-3.85425,833.504
198.0000,-3.38306,843.021
197.9000,-7.68802,852.426
197.8000,-16.7215,861.493
197.7000,-24.5369,870.804
197.6000,-28.7782,880.097
197.5000,-26.8062,890.416
197.4000,-23.3171,901.107
197.3000,-23.0337,913.571
197.2000,-23.9464,918.889
197.1000,-26.7497,931.299
197.0000,-27.6124,966.973
196.9000,-30.6292,986.368
196.8000,-34.9374,987.411
196.7000,-33.182,986.917
196.6000,-31.5873,986.362
196.5000,-33.6561,985.758
196.4000,-30.1194,985.356
196.3000,-27.4209,984.809
196.2000,-18.0212,984.617
196.1000,-4.56334,984.424
196.0000,2.11607,984.219
195.9000,4.0153,983.602
195.8000,6.2058,983.102
195.7000,11.3387,982.654
195.6000,15.0724,982.305
195.5000,18.2266,981.92
195.4000,24.4186,981.483
195.3000,32.4797,981.101
195.2000,39.1567,980.78
195.1000,40.4187,980.158
195.0000,37.5372,979.512
194.9000,34.7523,978.798
194.8000,32.597,978.107
194.7000,30.326,977.35
194.6000,32.854,976.75
194.5000,28.2048,975.876
194.4000,23.1772,975.226
194.3000,13.5427,974.167
194.2000,1.24946,973.206
194.1000,-5.24287,972.322
194.0000,-9.44407,971.564
193.9000,-9.91051,970.836
193.8000,-6.18704,970.332
193.7000,-8.51598,969.677
193.6000,-8.75447,969.098
193.5000,-3.7169,968.651
193.4000,2.59076,968.332
193.3000,9.13079,968.035
193.2000,12.6483,967.47
193.1000,19.3743,967.18
193.0000,26.49,966.865
192.9000,33.6944,966.604
192.8000,44.2844,966.452
192.7000,57.8675,966.382
192.6000,74.5671,966.595
192.5000,82.4334,966.533
192.4000,81.3274,966.03
192.3000,80.9151,965.5
192.2000,77.9757,964.941
192.1000,75.4592,964.481
192.0000,80.6186,964.299
191.9000,82.8803,964.101
191.8000,80.1129,963.687
191.7000,74.4487,963.136
191.6000,73.8095,962.827
191.5000,77.4724,962.814
191.4000,80.3632,962.719
191.3000,82.3036,947.952
191.2000,81.1939,909.29
191.1000,78.0747,860.913
191.0000,70.9556,807.848
190.9000,68.7734,752.662
190.8000,69.5793,696.446
190.7000,72.3128,646.045
190.6000,73.2689,628.775
190.5000,75.3267,629.81
190.4000,71.3341,632.607
190.3000,62.9666,635.418
190.2000,58.8863,638.239
190.1000,62.194,640.877
190.0000,60.391,641.586

##### Extended Information
[Comments]
Sample name,DL121 15C Lit - Reverse
Comment
User,JM
Division
Company,UT Southwestern Medical Center at Dallas

[Detailed Information]
Creation date,5/1/2023 4:30 PM

Data array type,Linear data array * 2
Horizontal axis,Wavelength [nm]
Vertical axis(1),CD [mdeg]
Vertical axis(2),HT [V]
Start,250 nm
End,190 nm
Data interval,0.1 nm
Data points,601     

[Measurement Information]
Instrument name,Jasco CD
Model name,J-815
Serial No.,B064061168

Accessory,CDF-426S
Accessory S/N,A00861183
  Temperature,14.99 C
  Control sonsor,Holder
  Monitor sensor,Holder
  Start Mode,Keep target temperature +/-0.10 deg C while 5 seconds
  Cell length,10 mm

Measurement date,5/1/2023 4:30 PM

Photometric mode,CD, HT
Measure range,250 - 190 nm
Data pitch,0.1 nm
Sensitivity,Standard
D.I.T.,1 sec
Bandwidth,1.00 nm
Start mode,Immediately
Scanning speed,100 nm/min
Baseline correction,None
Shutter control,Manual
CD detector,PMT
PMT voltage,Auto
No. of cycle,2/3

Concentration,0.7 (w/v)%
Solvent,50mM nap04 ph 6.5 100mM NaF

