TITLE,DL121 32.5C Dark
DATA TYPE,
ORIGIN,JASCO
OWNER,
DATE,23/05/01
TIME,13:01:58
SPECTROMETER/DATA SYSTEM,
LOCALE,1033
RESOLUTION,
DELTAX,-0.1
XUNITS,NANOMETERS
YUNITS,CD [mdeg]
Y2UNITS,HT [V]
FIRSTX,  250.0000
LASTX,  190.0000
NPOINTS,     601
FIRSTY,    -0.37696
MAXY,    50.37864
MINY,   -67.66584
XYDATA
250.0000,-0.376962,286.009
249.9000,-0.409091,286.048
249.8000,-0.40856,286.094
249.7000,-0.441733,286.139
249.6000,-0.502692,286.181
249.5000,-0.551962,286.224
249.4000,-0.589844,286.267
249.3000,-0.611285,286.313
249.2000,-0.63425,286.365
249.1000,-0.610983,286.417
249.0000,-0.613184,286.466
248.9000,-0.675815,286.509
248.8000,-0.737418,286.549
248.7000,-0.756052,286.595
248.6000,-0.80351,286.644
248.5000,-0.88381,286.69
248.4000,-0.935645,286.739
248.3000,-0.947501,286.795
248.2000,-0.978085,286.85
248.1000,-1.02065,286.9
248.0000,-1.04248,286.953
247.9000,-1.04619,287.007
247.8000,-1.04756,287.058
247.7000,-1.03848,287.106
247.6000,-1.04344,287.16
247.5000,-1.0291,287.216
247.4000,-1.04999,287.268
247.3000,-1.07132,287.321
247.2000,-1.06002,287.378
247.1000,-1.11973,287.437
247.0000,-1.16923,287.5
246.9000,-1.182,287.568
246.8000,-1.17974,287.637
246.7000,-1.19088,287.703
246.6000,-1.17761,287.766
246.5000,-1.18252,287.831
246.4000,-1.18245,287.905
246.3000,-1.17321,287.983
246.2000,-1.17649,288.062
246.1000,-1.17885,288.145
246.0000,-1.1669,288.227
245.9000,-1.1425,288.303
245.8000,-1.14557,288.386
245.7000,-1.15344,288.475
245.6000,-1.14514,288.568
245.5000,-1.12148,288.654
245.4000,-1.06959,288.741
245.3000,-1.07588,288.822
245.2000,-1.08496,288.904
245.1000,-1.08842,288.992
245.0000,-1.10047,289.087
244.9000,-1.13152,289.183
244.8000,-1.16057,289.275
244.7000,-1.21899,289.362
244.6000,-1.25463,289.451
244.5000,-1.2537,289.548
244.4000,-1.30608,289.644
244.3000,-1.38102,289.745
244.2000,-1.45692,289.845
244.1000,-1.47455,289.942
244.0000,-1.51466,290.035
243.9000,-1.61609,290.129
243.8000,-1.73147,290.233
243.7000,-1.80921,290.342
243.6000,-1.86963,290.455
243.5000,-1.93484,290.569
243.4000,-1.99715,290.68
243.3000,-2.06617,290.788
243.2000,-2.0969,290.898
243.1000,-2.09228,291.018
243.0000,-2.09384,291.139
242.9000,-2.15481,291.261
242.8000,-2.23784,291.383
242.7000,-2.27995,291.504
242.6000,-2.33108,291.624
242.5000,-2.41725,291.744
242.4000,-2.5498,291.872
242.3000,-2.69265,292.007
242.2000,-2.78141,292.147
242.1000,-2.85124,292.282
242.0000,-2.91797,292.416
241.9000,-3.00217,292.55
241.8000,-3.08755,292.688
241.7000,-3.17193,292.834
241.6000,-3.27992,292.986
241.5000,-3.3707,293.142
241.4000,-3.50751,293.299
241.3000,-3.60963,293.457
241.2000,-3.66958,293.617
241.1000,-3.72163,293.781
241.0000,-3.75084,293.959
240.9000,-3.74654,294.145
240.8000,-3.75997,294.334
240.7000,-3.80806,294.518
240.6000,-3.86061,294.7
240.5000,-3.93957,294.885
240.4000,-4.06796,295.076
240.3000,-4.196,295.281
240.2000,-4.29801,295.492
240.1000,-4.40029,295.705
240.0000,-4.49706,295.92
239.9000,-4.61147,296.135
239.8000,-4.74256,296.353
239.7000,-4.86041,296.581
239.6000,-5.02984,296.813
239.5000,-5.18195,297.051
239.4000,-5.31315,297.288
239.3000,-5.46489,297.525
239.2000,-5.60067,297.771
239.1000,-5.69042,298.025
239.0000,-5.73943,298.284
238.9000,-5.7756,298.548
238.8000,-5.79736,298.816
238.7000,-5.81889,299.087
238.6000,-5.87422,299.359
238.5000,-5.95868,299.637
238.4000,-6.05882,299.917
238.3000,-6.1762,300.201
238.2000,-6.29891,300.487
238.1000,-6.39901,300.779
238.0000,-6.50126,301.076
237.9000,-6.59904,301.386
237.8000,-6.7517,301.701
237.7000,-6.93395,302.019
237.6000,-7.08768,302.34
237.5000,-7.24395,302.659
237.4000,-7.36479,302.987
237.3000,-7.48986,303.327
237.2000,-7.61277,303.676
237.1000,-7.77178,304.031
237.0000,-7.90633,304.388
236.9000,-8.05196,304.747
236.8000,-8.17961,305.114
236.7000,-8.30717,305.49
236.6000,-8.49235,305.875
236.5000,-8.66794,306.266
236.4000,-8.79878,306.667
236.3000,-8.90962,307.072
236.2000,-9.1026,307.477
236.1000,-9.24069,307.888
236.0000,-9.42051,308.307
235.9000,-9.5934,308.739
235.8000,-9.77152,309.176
235.7000,-9.97896,309.615
235.6000,-10.1615,310.062
235.5000,-10.3722,310.511
235.4000,-10.5438,310.964
235.3000,-10.7069,311.419
235.2000,-10.8555,311.882
235.1000,-11.0626,312.351
235.0000,-11.2165,312.829
234.9000,-11.281,313.317
234.8000,-11.4298,313.812
234.7000,-11.6594,314.308
234.6000,-11.8636,314.807
234.5000,-12.0309,315.321
234.4000,-12.186,315.842
234.3000,-12.3423,316.372
234.2000,-12.5447,316.906
234.1000,-12.7927,317.443
234.0000,-13.1009,317.986
233.9000,-13.3908,318.535
233.8000,-13.6332,319.096
233.7000,-13.8779,319.666
233.6000,-14.1288,320.248
233.5000,-14.3663,320.833
233.4000,-14.5535,321.422
233.3000,-14.8185,322.009
233.2000,-15.1164,322.6
233.1000,-15.3682,323.198
233.0000,-15.6269,323.801
232.9000,-15.848,324.41
232.8000,-16.0413,325.016
232.7000,-16.2765,325.624
232.6000,-16.4749,326.234
232.5000,-16.6803,326.854
232.4000,-16.8591,327.488
232.3000,-17.0451,328.124
232.2000,-17.3222,328.752
232.1000,-17.633,329.381
232.0000,-17.9528,330.018
231.9000,-18.2375,330.661
231.8000,-18.5078,331.31
231.7000,-18.7444,331.965
231.6000,-18.9533,332.629
231.5000,-19.1374,333.289
231.4000,-19.2892,333.948
231.3000,-19.4693,334.61
231.2000,-19.7401,335.271
231.1000,-20.0549,335.938
231.0000,-20.3485,336.611
230.9000,-20.7431,337.278
230.8000,-21.0999,337.935
230.7000,-21.4048,338.593
230.6000,-21.672,339.255
230.5000,-21.8832,339.922
230.4000,-22.0653,340.59
230.3000,-22.2894,341.249
230.2000,-22.5429,341.901
230.1000,-22.8732,342.549
230.0000,-23.1855,343.199
229.9000,-23.4833,343.846
229.8000,-23.7599,344.495
229.7000,-24.0749,345.148
229.6000,-24.4023,345.797
229.5000,-24.7272,346.444
229.4000,-25.0547,347.091
229.3000,-25.3022,347.741
229.2000,-25.5169,348.393
229.1000,-25.8221,349.049
229.0000,-26.1023,349.708
228.9000,-26.3163,350.367
228.8000,-26.5903,351.022
228.7000,-26.9272,351.677
228.6000,-27.1994,352.34
228.5000,-27.4695,353.003
228.4000,-27.6372,353.664
228.3000,-27.8985,354.316
228.2000,-28.1908,354.965
228.1000,-28.558,355.613
228.0000,-28.8391,356.26
227.9000,-29.1258,356.905
227.8000,-29.3719,357.542
227.7000,-29.6338,358.172
227.6000,-29.9934,358.796
227.5000,-30.1817,359.427
227.4000,-30.4196,360.056
227.3000,-30.6591,360.679
227.2000,-30.9796,361.295
227.1000,-31.2754,361.908
227.0000,-31.5809,362.512
226.9000,-31.9027,363.111
226.8000,-32.2684,363.71
226.7000,-32.7346,364.306
226.6000,-33.112,364.903
226.5000,-33.4939,365.498
226.4000,-33.8392,366.087
226.3000,-34.1202,366.683
226.2000,-34.3927,367.284
226.1000,-34.7279,367.885
226.0000,-34.9769,368.484
225.9000,-35.218,369.08
225.8000,-35.4251,369.672
225.7000,-35.616,370.26
225.6000,-35.8127,370.846
225.5000,-36.0605,371.428
225.4000,-36.2644,372.012
225.3000,-36.4827,372.594
225.2000,-36.7373,373.17
225.1000,-36.9604,373.744
225.0000,-37.1958,374.317
224.9000,-37.4154,374.895
224.8000,-37.5517,375.477
224.7000,-37.7079,376.057
224.6000,-38.0093,376.629
224.5000,-38.2328,377.2
224.4000,-38.4158,377.773
224.3000,-38.7544,378.341
224.2000,-39.0318,378.91
224.1000,-39.391,379.472
224.0000,-39.6736,380.036
223.9000,-40.0098,380.606
223.8000,-40.3334,381.179
223.7000,-40.6575,381.748
223.6000,-40.9201,382.32
223.5000,-41.2233,382.895
223.4000,-41.494,383.47
223.3000,-41.6562,384.051
223.2000,-41.8082,384.629
223.1000,-41.9803,385.209
223.0000,-42.0965,385.789
222.9000,-42.0862,386.367
222.8000,-42.2369,386.938
222.7000,-42.3672,387.514
222.6000,-42.4305,388.092
222.5000,-42.6058,388.664
222.4000,-42.7728,389.235
222.3000,-43.0202,389.799
222.2000,-43.1636,390.361
222.1000,-43.2803,390.927
222.0000,-43.2912,391.503
221.9000,-43.4181,392.07
221.8000,-43.4247,392.633
221.7000,-43.5731,393.196
221.6000,-43.8384,393.756
221.5000,-44.1364,394.313
221.4000,-44.3444,394.867
221.3000,-44.7559,395.421
221.2000,-45.1633,395.977
221.1000,-45.3913,396.534
221.0000,-45.6306,397.085
220.9000,-45.7697,397.647
220.8000,-45.8456,398.218
220.7000,-45.8942,398.793
220.6000,-45.7735,399.38
220.5000,-45.6426,399.963
220.4000,-45.6171,400.54
220.3000,-45.4957,401.128
220.2000,-45.3159,401.719
220.1000,-45.0797,402.316
220.0000,-44.8101,402.908
219.9000,-44.6808,403.495
219.8000,-44.7115,404.083
219.7000,-44.6057,404.677
219.6000,-44.2209,405.279
219.5000,-43.9101,405.878
219.4000,-43.6773,406.482
219.3000,-43.4598,407.08
219.2000,-43.3914,407.671
219.1000,-43.3594,408.261
219.0000,-43.4192,408.853
218.9000,-43.5752,409.448
218.8000,-43.8178,410.045
218.7000,-44.031,410.634
218.6000,-44.1871,411.218
218.5000,-44.4272,411.802
218.4000,-44.6323,412.398
218.3000,-44.6168,413.012
218.2000,-44.4846,413.629
218.1000,-44.4166,414.241
218.0000,-44.5081,414.843
217.9000,-44.8099,415.44
217.8000,-45.1118,416.045
217.7000,-45.2533,416.664
217.6000,-45.4191,417.293
217.5000,-45.4653,417.927
217.4000,-45.432,418.562
217.3000,-45.2995,419.198
217.2000,-45.1936,419.839
217.1000,-45.0586,420.488
217.0000,-45.0486,421.145
216.9000,-45.211,421.808
216.8000,-45.3665,422.475
216.7000,-45.6601,423.137
216.6000,-46.0776,423.801
216.5000,-46.3014,424.478
216.4000,-46.317,425.173
216.3000,-46.1142,425.886
216.2000,-45.8985,426.608
216.1000,-45.7708,427.337
216.0000,-45.601,428.076
215.9000,-45.5369,428.816
215.8000,-45.4657,429.566
215.7000,-45.4873,430.318
215.6000,-45.5457,431.078
215.5000,-45.6324,431.845
215.4000,-45.7651,432.628
215.3000,-45.5759,433.426
215.2000,-45.2714,434.236
215.1000,-44.9829,435.05
215.0000,-44.7204,435.87
214.9000,-44.3855,436.707
214.8000,-44.2003,437.553
214.7000,-44.1607,438.402
214.6000,-44.1781,439.26
214.5000,-44.031,440.136
214.4000,-44.008,441.015
214.3000,-43.8259,441.914
214.2000,-43.7871,442.823
214.1000,-43.7697,443.746
214.0000,-43.704,444.684
213.9000,-43.6392,445.643
213.8000,-43.4135,446.622
213.7000,-43.2705,447.61
213.6000,-43.4945,448.601
213.5000,-43.6811,449.612
213.4000,-43.6357,450.647
213.3000,-43.5057,451.699
213.2000,-43.372,452.765
213.1000,-43.3263,453.845
213.0000,-43.4235,454.944
212.9000,-43.4715,456.061
212.8000,-43.5179,457.189
212.7000,-43.5326,458.333
212.6000,-43.5522,459.494
212.5000,-43.7271,460.667
212.4000,-43.8417,461.861
212.3000,-44.122,463.062
212.2000,-44.2756,464.273
212.1000,-44.3285,465.507
212.0000,-44.4426,466.758
211.9000,-44.4901,468.031
211.8000,-44.2499,469.335
211.7000,-44.1634,470.653
211.6000,-44.137,471.982
211.5000,-44.091,473.326
211.4000,-44.0462,474.695
211.3000,-44.0746,476.082
211.2000,-44.3534,477.487
211.1000,-44.4639,478.922
211.0000,-44.6905,480.367
210.9000,-44.9382,481.832
210.8000,-45.0103,483.324
210.7000,-44.8738,484.845
210.6000,-44.6766,486.393
210.5000,-44.5086,487.969
210.4000,-44.2246,489.576
210.3000,-43.804,491.214
210.2000,-43.7633,492.865
210.1000,-44.079,494.53
210.0000,-44.3682,496.226
209.9000,-44.5839,497.971
209.8000,-44.7472,499.752
209.7000,-44.8016,501.562
209.6000,-44.8533,503.404
209.5000,-44.8451,505.275
209.4000,-44.7166,507.178
209.3000,-44.4103,509.122
209.2000,-44.0321,511.106
209.1000,-43.5566,513.135
209.0000,-43.3742,515.196
208.9000,-43.3053,517.299
208.8000,-43.4286,519.428
208.7000,-43.7715,521.588
208.6000,-43.9094,523.793
208.5000,-43.8712,526.053
208.4000,-43.522,528.373
208.3000,-42.9598,530.739
208.2000,-42.3912,533.138
208.1000,-42.1837,535.567
208.0000,-42.1625,538.02
207.9000,-41.6962,540.532
207.8000,-41.5721,543.082
207.7000,-41.5944,545.676
207.6000,-41.8041,548.31
207.5000,-41.4911,551.006
207.4000,-41.4672,553.738
207.3000,-41.7072,556.508
207.2000,-41.6383,559.333
207.1000,-41.6155,562.2
207.0000,-41.6449,565.106
206.9000,-41.5121,568.066
206.8000,-41.7573,571.06
206.7000,-41.7889,574.106
206.6000,-41.5975,577.207
206.5000,-41.4428,580.353
206.4000,-41.2391,583.563
206.3000,-40.8908,586.849
206.2000,-40.903,590.178
206.1000,-40.8449,593.566
206.0000,-40.9228,596.998
205.9000,-41.106,600.482
205.8000,-41.2568,604.017
205.7000,-41.065,607.614
205.6000,-40.7032,611.271
205.5000,-40.8235,614.967
205.4000,-41.1214,618.707
205.3000,-41.2785,622.501
205.2000,-40.6672,626.368
205.1000,-39.8706,630.288
205.0000,-39.8894,634.239
204.9000,-39.3068,638.256
204.8000,-38.6652,642.315
204.7000,-38.1095,646.415
204.6000,-37.1731,650.571
204.5000,-36.425,654.76
204.4000,-36.2666,658.978
204.3000,-35.2074,663.291
204.2000,-33.7969,667.659
204.1000,-32.1182,672.088
204.0000,-30.4156,676.558
203.9000,-29.4352,681.029
203.8000,-28.4073,685.54
203.7000,-27.0451,690.102
203.6000,-25.3586,694.71
203.5000,-24.6888,699.321
203.4000,-23.2485,703.976
203.3000,-21.9397,708.633
203.2000,-20.457,713.33
203.1000,-18.2493,718.06
203.0000,-16.3447,722.79
202.9000,-14.1249,727.524
202.8000,-12.119,732.25
202.7000,-10.4388,736.958
202.6000,-10.7881,741.581
202.5000,-10.7161,746.212
202.4000,-12.1977,750.759
202.3000,-11.7243,755.342
202.2000,-7.70335,760.03
202.1000,-6.56829,764.596
202.0000,-5.23844,769.14
201.9000,-6.44161,773.555
201.8000,-4.76191,778.012
201.7000,-5.6156,782.346
201.6000,-6.70683,786.623
201.5000,-10.941,790.739
201.4000,-14.6513,794.833
201.3000,-21.4742,798.78
201.2000,-24.5816,802.76
201.1000,-25.8011,806.731
201.0000,-25.9742,810.668
200.9000,-22.9377,814.629
200.8000,-19.1252,818.55
200.7000,-14.6313,822.431
200.6000,-10.8343,826.191
200.5000,-10.9363,829.735
200.4000,-7.02746,833.339
200.3000,0.496964,836.954
200.2000,8.66175,840.555
200.1000,13.8688,843.93
200.0000,17.7838,847.215
199.9000,21.1483,850.381
199.8000,28.1174,853.589
199.7000,34.171,856.677
199.6000,40.3558,853.693
199.5000,42.3933,829.988
199.4000,43.533,825.526
199.3000,41.8167,830.636
199.2000,30.8342,836.054
199.1000,16.4215,841.305
199.0000,7.41756,846.651
198.9000,-6.53826,851.715
198.8000,-18.9868,856.785
198.7000,-25.9778,861.987
198.6000,-31.0709,867.222
198.5000,-35.9381,872.381
198.4000,-41.948,877.463
198.3000,-50.2288,882.406
198.2000,-53.5832,887.395
198.1000,-59.3498,892.257
198.0000,-62.6538,897.094
197.9000,-64.6814,915.336
197.8000,-66.1678,944.381
197.7000,-67.6658,950.574
197.6000,-65.2294,952.312
197.5000,-58.37,953.836
197.4000,-51.187,955.239
197.3000,-51.5506,956.37
197.2000,-39.2204,957.828
197.1000,-25.5624,959.298
197.0000,-17.4848,960.426
196.9000,-13.5781,961.302
196.8000,-10.7428,962.071
196.7000,-0.973578,962.911
196.6000,9.30505,963.809
196.5000,9.49581,964.45
196.4000,2.96967,964.706
196.3000,7.04221,965.148
196.2000,12.1099,965.639
196.1000,17.0802,966.048
196.0000,14.1009,966.107
195.9000,11.0381,966.115
195.8000,8.95229,961.111
195.7000,9.88898,940.822
195.6000,11.8515,940.888
195.5000,13.2297,944.607
195.4000,10.9068,948.359
195.3000,5.41813,952.096
195.2000,-0.84928,955.833
195.1000,-6.97286,959.584
195.0000,-11.2744,963.393
194.9000,-8.73447,967.265
194.8000,-7.44467,971.121
194.7000,-5.81278,974.981
194.6000,-13.9126,978.665
194.5000,-18.7702,982.323
194.4000,-22.0244,986.008
194.3000,-21.4016,990.042
194.2000,-16.3606,994.027
194.1000,-13.9905,1010.51
194.0000,-13.7908,1028.71
193.9000,-15.7432,1030.24
193.8000,-19.4189,1030.26
193.7000,-21.0637,1030.23
193.6000,-19.5178,1030.27
193.5000,-13.4809,1030.45
193.4000,-11.0772,1030.52
193.3000,-10.3857,1030.54
193.2000,-7.56782,1030.61
193.1000,6.11069,1031.02
193.0000,17.9483,1031.38
192.9000,30.063,1031.73
192.8000,32.1855,1031.75
192.7000,35.9196,1031.67
192.6000,41.6911,1031.43
192.5000,44.2416,1030.68
192.4000,47.0942,1029.69
192.3000,50.3786,1028.51
192.2000,45.0204,1026.95
192.1000,35.8691,1025.11
192.0000,24.2125,1023.01
191.9000,14.9595,1020.93
191.8000,13.4317,1019
191.7000,11.6421,1016.97
191.6000,9.77343,1014.86
191.5000,3.85286,1012.56
191.4000,-7.40496,1010.06
191.3000,-17.04,1007.59
191.2000,-21.6019,1005.28
191.1000,-25.7292,1002.92
191.0000,-32.0395,1000.65
190.9000,-43.1512,998.42
190.8000,-47.2361,996.745
190.7000,-48.501,995.307
190.6000,-47.4293,994.181
190.5000,-44.1,993.186
190.4000,-47.167,992.081
190.3000,-45.899,991.273
190.2000,-44.8407,990.463
190.1000,-44.576,989.676
190.0000,-43.7783,989.06

##### Extended Information
[Comments]
Sample name,DL121 32.5C Dark
Comment
User,JM
Division
Company,UT Southwestern Medical Center at Dallas

[Detailed Information]
Creation date,5/1/2023 1:01 PM

Data array type,Linear data array * 2
Horizontal axis,Wavelength [nm]
Vertical axis(1),CD [mdeg]
Vertical axis(2),HT [V]
Start,250 nm
End,190 nm
Data interval,0.1 nm
Data points,601     

[Measurement Information]
Instrument name,Jasco CD
Model name,J-815
Serial No.,B064061168

Accessory,CDF-426S
Accessory S/N,A00861183
  Temperature,32.50 C
  Control sonsor,Holder
  Monitor sensor,Holder
  Start Mode,Keep target temperature +/-0.10 deg C while 5 seconds
  Cell length,10 mm

Measurement date,5/1/2023 1:01 PM

Photometric mode,CD, HT
Measure range,250 - 190 nm
Data pitch,0.1 nm
Sensitivity,Standard
D.I.T.,1 sec
Bandwidth,1.00 nm
Start mode,Immediately
Scanning speed,100 nm/min
Baseline correction,None
Shutter control,Manual
CD detector,PMT
PMT voltage,Auto
No. of cycle,1/3

Concentration,0.7 (w/v)%
Solvent,50mM nap04 ph 6.5 100mM NaF

