TITLE,DL121 32.5C Lit
DATA TYPE,
ORIGIN,JASCO
OWNER,
DATE,23/05/01
TIME,13:04:53
SPECTROMETER/DATA SYSTEM,
LOCALE,1033
RESOLUTION,
DELTAX,-0.1
XUNITS,NANOMETERS
YUNITS,CD [mdeg]
Y2UNITS,HT [V]
FIRSTX,  250.0000
LASTX,  190.0000
NPOINTS,     601
FIRSTY,    -0.82780
MAXY,    32.45429
MINY,   -59.21608
XYDATA
250.0000,-0.827795,285.958
249.9000,-0.825421,286.002
249.8000,-0.791422,286.054
249.7000,-0.750021,286.11
249.6000,-0.74476,286.162
249.5000,-0.776639,286.214
249.4000,-0.797556,286.263
249.3000,-0.81091,286.314
249.2000,-0.794574,286.373
249.1000,-0.735895,286.428
249.0000,-0.661343,286.483
248.9000,-0.621539,286.535
248.8000,-0.571408,286.59
248.7000,-0.522968,286.649
248.6000,-0.508643,286.708
248.5000,-0.514331,286.764
248.4000,-0.507681,286.817
248.3000,-0.51171,286.87
248.2000,-0.51731,286.925
248.1000,-0.555426,286.976
248.0000,-0.571606,287.031
247.9000,-0.577393,287.085
247.8000,-0.569183,287.14
247.7000,-0.568182,287.197
247.6000,-0.546912,287.254
247.5000,-0.548218,287.311
247.4000,-0.619321,287.37
247.3000,-0.705594,287.434
247.2000,-0.779099,287.498
247.1000,-0.854681,287.562
247.0000,-0.926819,287.623
246.9000,-0.964587,287.689
246.8000,-0.974319,287.761
246.7000,-0.986588,287.839
246.6000,-1.03455,287.915
246.5000,-1.07692,287.995
246.4000,-1.12709,288.074
246.3000,-1.201,288.153
246.2000,-1.23976,288.237
246.1000,-1.28146,288.327
246.0000,-1.32425,288.419
245.9000,-1.40066,288.508
245.8000,-1.42591,288.595
245.7000,-1.39476,288.682
245.6000,-1.35272,288.766
245.5000,-1.3184,288.851
245.4000,-1.29563,288.941
245.3000,-1.30979,289.027
245.2000,-1.34217,289.11
245.1000,-1.3818,289.196
245.0000,-1.4091,289.284
244.9000,-1.41277,289.377
244.8000,-1.42325,289.468
244.7000,-1.40844,289.563
244.6000,-1.40836,289.661
244.5000,-1.42877,289.762
244.4000,-1.44993,289.86
244.3000,-1.46287,289.957
244.2000,-1.48813,290.059
244.1000,-1.51245,290.162
244.0000,-1.52357,290.269
243.9000,-1.5699,290.378
243.8000,-1.62746,290.491
243.7000,-1.68413,290.604
243.6000,-1.71244,290.72
243.5000,-1.76696,290.836
243.4000,-1.84601,290.953
243.3000,-1.91728,291.073
243.2000,-1.98313,291.194
243.1000,-2.02592,291.321
243.0000,-2.11436,291.446
242.9000,-2.1868,291.57
242.8000,-2.19967,291.696
242.7000,-2.26977,291.827
242.6000,-2.33737,291.961
242.5000,-2.39391,292.097
242.4000,-2.44361,292.238
242.3000,-2.53954,292.383
242.2000,-2.62583,292.529
242.1000,-2.70911,292.674
242.0000,-2.77975,292.821
241.9000,-2.84039,292.97
241.8000,-2.93259,293.119
241.7000,-3.01852,293.274
241.6000,-3.09189,293.431
241.5000,-3.17641,293.583
241.4000,-3.22488,293.738
241.3000,-3.26336,293.898
241.2000,-3.35615,294.062
241.1000,-3.48529,294.227
241.0000,-3.57737,294.395
240.9000,-3.68308,294.568
240.8000,-3.81727,294.742
240.7000,-4.00282,294.917
240.6000,-4.15216,295.099
240.5000,-4.26945,295.287
240.4000,-4.39442,295.477
240.3000,-4.52251,295.677
240.2000,-4.65424,295.884
240.1000,-4.77358,296.092
240.0000,-4.92237,296.301
239.9000,-5.07705,296.517
239.8000,-5.24885,296.744
239.7000,-5.41149,296.978
239.6000,-5.52093,297.215
239.5000,-5.65034,297.454
239.4000,-5.75444,297.694
239.3000,-5.85665,297.939
239.2000,-5.96107,298.191
239.1000,-6.04838,298.448
239.0000,-6.13617,298.706
238.9000,-6.21508,298.964
238.8000,-6.27635,299.232
238.7000,-6.33835,299.505
238.6000,-6.38434,299.778
238.5000,-6.4381,300.052
238.4000,-6.49441,300.329
238.3000,-6.53896,300.61
238.2000,-6.61014,300.896
238.1000,-6.69402,301.185
238.0000,-6.79163,301.479
237.9000,-6.90078,301.094
237.8000,-6.91622,298.862
237.7000,-6.83487,296.897
237.6000,-6.72308,294.958
237.5000,-6.55064,293.303
237.4000,-6.40743,293.451
237.3000,-6.36452,293.794
237.2000,-6.38209,294.152
237.1000,-6.46132,294.511
237.0000,-6.61789,294.873
236.9000,-6.79259,295.239
236.8000,-6.96619,295.616
236.7000,-7.15256,296.004
236.6000,-7.33629,296.401
236.5000,-7.47142,296.802
236.4000,-7.62687,297.208
236.3000,-7.77315,297.624
236.2000,-7.89801,299.6
236.1000,-8.18137,302.477
236.0000,-8.61591,305.168
235.9000,-9.05753,307.857
235.8000,-9.52328,309.661
235.7000,-9.91643,310.157
235.6000,-10.2237,310.598
235.5000,-10.494,311.042
235.4000,-10.7031,311.491
235.3000,-10.8535,311.949
235.2000,-10.994,312.416
235.1000,-11.0862,312.889
235.0000,-11.2165,313.363
234.9000,-11.3775,313.845
234.8000,-11.5141,314.337
234.7000,-11.692,314.831
234.6000,-11.9143,315.327
234.5000,-12.1036,315.827
234.4000,-12.251,316.341
234.3000,-12.3876,316.868
234.2000,-12.5896,317.404
234.1000,-12.7779,317.939
234.0000,-13.0058,318.48
233.9000,-13.2334,319.027
233.8000,-13.4607,319.584
233.7000,-13.7264,320.146
233.6000,-13.9993,320.718
233.5000,-14.3283,321.288
233.4000,-14.6322,321.864
233.3000,-14.9014,322.443
233.2000,-15.1514,323.022
233.1000,-15.4083,323.613
233.0000,-15.6908,324.21
232.9000,-15.9413,324.818
232.8000,-16.2259,325.425
232.7000,-16.4724,326.032
232.6000,-16.701,326.641
232.5000,-16.8955,327.257
232.4000,-17.0679,327.881
232.3000,-17.2779,328.511
232.2000,-17.5221,329.143
232.1000,-17.7274,329.777
232.0000,-17.8853,330.419
231.9000,-18.0816,331.064
231.8000,-18.292,331.717
231.7000,-18.4756,332.376
231.6000,-18.6733,333.041
231.5000,-18.8791,333.705
231.4000,-19.0661,334.364
231.3000,-19.1768,335.028
231.2000,-19.3702,335.689
231.1000,-19.547,336.354
231.0000,-19.7693,337.017
230.9000,-19.9583,337.684
230.8000,-20.2251,338.343
230.7000,-20.5144,338.999
230.6000,-20.803,339.651
230.5000,-21.0624,340.306
230.4000,-21.3058,340.961
230.3000,-21.5686,341.606
230.2000,-21.6884,342.254
230.1000,-21.8608,342.9
230.0000,-22.0505,343.545
229.9000,-22.2373,344.189
229.8000,-22.4403,344.832
229.7000,-22.6797,345.482
229.6000,-22.988,346.133
229.5000,-23.1856,346.789
229.4000,-23.416,347.451
229.3000,-23.5946,348.116
229.2000,-23.8103,348.776
229.1000,-24.0482,349.44
229.0000,-24.2252,350.105
228.9000,-24.4146,350.771
228.8000,-24.6513,351.436
228.7000,-24.942,352.101
228.6000,-25.2013,352.771
228.5000,-25.5083,353.44
228.4000,-25.8224,354.113
228.3000,-26.1541,354.783
228.2000,-26.4863,355.445
228.1000,-26.8257,356.099
228.0000,-27.1613,356.74
227.9000,-27.4379,357.379
227.8000,-27.7647,358.012
227.7000,-28.1043,358.639
227.6000,-28.4441,359.262
227.5000,-28.7648,359.887
227.4000,-29.0201,360.508
227.3000,-29.2921,361.126
227.2000,-29.6168,361.742
227.1000,-29.9439,362.359
227.0000,-30.302,362.974
226.9000,-30.6212,363.581
226.8000,-30.8416,364.18
226.7000,-31.0218,364.776
226.6000,-31.1971,365.374
226.5000,-31.376,365.978
226.4000,-31.4597,366.587
226.3000,-31.5305,367.201
226.2000,-31.6092,367.813
226.1000,-31.6986,368.423
226.0000,-31.9227,369.025
225.9000,-32.2438,369.621
225.8000,-32.5869,370.214
225.7000,-32.9859,370.806
225.6000,-33.2643,371.398
225.5000,-33.4375,371.984
225.4000,-33.6294,372.568
225.3000,-33.761,373.157
225.2000,-33.9582,373.743
225.1000,-34.2138,374.326
225.0000,-34.5884,374.906
224.9000,-34.9566,375.489
224.8000,-35.2723,376.075
224.7000,-35.6266,376.655
224.6000,-36.0948,377.226
224.5000,-36.5801,377.793
224.4000,-37.0746,378.364
224.3000,-37.4739,378.944
224.2000,-37.7212,379.528
224.1000,-37.8634,380.111
224.0000,-38.0097,380.69
223.9000,-38.2554,381.268
223.8000,-38.4054,381.847
223.7000,-38.5739,382.422
223.6000,-38.7728,382.996
223.5000,-39.1076,383.568
223.4000,-39.3231,384.142
223.3000,-39.4679,384.72
223.2000,-39.7017,385.293
223.1000,-39.9811,385.866
223.0000,-40.1814,386.437
222.9000,-40.3045,387.008
222.8000,-40.3657,387.58
222.7000,-40.3062,388.154
222.6000,-40.1969,388.727
222.5000,-40.212,389.298
222.4000,-40.3669,389.867
222.3000,-40.5949,390.432
222.2000,-40.834,390.997
222.1000,-41.0103,391.568
222.0000,-41.2354,392.134
221.9000,-41.4782,392.699
221.8000,-41.6413,393.268
221.7000,-41.9275,393.833
221.6000,-42.13,394.397
221.5000,-42.4015,394.961
221.4000,-42.5503,395.527
221.3000,-42.7989,396.092
221.2000,-42.9036,396.662
221.1000,-42.9953,397.233
221.0000,-43.1625,397.801
220.9000,-43.3236,398.373
220.8000,-43.284,396.832
220.7000,-42.197,385.109
220.6000,-40.5025,369.195
220.5000,-38.4599,361.268
220.4000,-36.3798,356.205
220.3000,-34.9393,356.384
220.2000,-33.9885,357.003
220.1000,-33.3062,357.642
220.0000,-32.8129,358.27
219.9000,-32.5112,358.888
219.8000,-32.2626,359.507
219.7000,-32.0576,360.128
219.6000,-31.8894,360.755
219.5000,-31.894,361.374
219.4000,-31.8917,361.995
219.3000,-31.8387,362.611
219.2000,-31.7145,363.224
219.1000,-32.0533,369.05
219.0000,-33.4139,384.541
218.9000,-35.1593,399.2
218.8000,-37.2102,407.638
218.7000,-39.0995,411.679
218.6000,-40.2107,412.409
218.5000,-40.8607,412.992
218.4000,-41.3131,413.572
218.3000,-41.4973,414.167
218.2000,-41.6512,414.759
218.1000,-42.0287,415.343
218.0000,-42.2866,415.924
217.9000,-42.351,416.514
217.8000,-42.4002,417.116
217.7000,-42.4727,417.721
217.6000,-42.589,418.334
217.5000,-42.7731,418.944
217.4000,-42.8335,419.561
217.3000,-42.8916,420.186
217.2000,-42.8781,420.822
217.1000,-42.9354,421.463
217.0000,-43.0247,422.112
216.9000,-43.215,422.76
216.8000,-43.5001,423.406
216.7000,-43.7167,424.061
216.6000,-43.9558,424.728
216.5000,-43.8854,425.422
216.4000,-43.6205,426.136
216.3000,-43.4501,426.861
216.2000,-43.3481,427.584
216.1000,-43.286,428.311
216.0000,-43.1518,429.049
215.9000,-42.9997,429.8
215.8000,-42.9339,430.563
215.7000,-42.8815,431.33
215.6000,-42.8331,432.099
215.5000,-42.7194,432.878
215.4000,-42.6787,433.666
215.3000,-42.674,434.461
215.2000,-42.5566,435.273
215.1000,-42.2585,436.104
215.0000,-41.9018,436.943
214.9000,-41.6744,437.78
214.8000,-41.5514,438.617
214.7000,-41.6756,439.46
214.6000,-41.7398,440.324
214.5000,-41.6683,441.206
214.4000,-41.574,442.095
214.3000,-41.6998,442.992
214.2000,-41.7962,443.906
214.1000,-41.7211,444.838
214.0000,-41.4246,445.796
213.9000,-41.1739,446.768
213.8000,-41.0317,447.748
213.7000,-40.7368,448.744
213.6000,-40.4756,449.757
213.5000,-40.2112,450.785
213.4000,-40.0326,451.825
213.3000,-40.0445,452.875
213.2000,-40.0015,453.943
213.1000,-39.9867,455.025
213.0000,-39.9136,456.121
212.9000,-39.883,457.235
212.8000,-39.689,458.371
212.7000,-39.4431,459.519
212.6000,-39.2289,460.678
212.5000,-39.0668,461.855
212.4000,-38.9898,463.055
212.3000,-39.0678,464.267
212.2000,-39.2355,465.492
212.1000,-39.5096,466.723
212.0000,-39.7098,467.967
211.9000,-39.6347,469.24
211.8000,-39.5675,470.54
211.7000,-39.6139,471.862
211.6000,-39.592,473.202
211.5000,-39.6558,474.554
211.4000,-39.7375,475.92
211.3000,-39.65,477.312
211.2000,-39.5703,478.728
211.1000,-39.849,480.16
211.0000,-40.2504,481.611
210.9000,-40.4983,483.079
210.8000,-40.9027,484.551
210.7000,-41.3227,486.04
210.6000,-41.5821,487.559
210.5000,-41.683,489.117
210.4000,-41.5651,490.715
210.3000,-41.7727,492.331
210.2000,-42.1228,493.961
210.1000,-42.4043,495.611
210.0000,-42.5189,497.299
209.9000,-42.5571,499.042
209.8000,-42.7156,500.822
209.7000,-42.672,502.638
209.6000,-42.8458,504.471
209.5000,-43.1848,506.316
209.4000,-43.2189,508.203
209.3000,-43.288,510.135
209.2000,-43.4182,512.11
209.1000,-43.2216,514.143
209.0000,-42.9404,516.218
208.9000,-42.6622,518.334
208.8000,-42.6196,520.472
208.7000,-42.5471,522.655
208.6000,-42.4458,524.882
208.5000,-42.6101,527.148
208.4000,-43.0079,529.444
208.3000,-43.377,531.768
208.2000,-43.0512,534.145
208.1000,-42.3206,536.581
208.0000,-41.8128,539.059
207.9000,-41.4418,541.581
207.8000,-41.108,544.151
207.7000,-40.7562,546.764
207.6000,-40.2147,549.42
207.5000,-39.513,552.123
207.4000,-39.5904,554.842
207.3000,-39.7128,557.6
207.2000,-39.5048,560.414
207.1000,-39.1692,563.279
207.0000,-38.8955,566.179
206.9000,-38.9965,569.116
206.8000,-39.0839,572.101
206.7000,-39.1471,575.148
206.6000,-39.0057,578.255
206.5000,-39.504,581.389
206.4000,-39.4285,584.59
206.3000,-39.0345,587.854
206.2000,-38.5904,591.178
206.1000,-37.9206,594.565
206.0000,-37.5867,597.99
205.9000,-37.8113,601.442
205.8000,-36.958,604.969
205.7000,-35.6063,608.558
205.6000,-34.8751,612.196
205.5000,-33.7762,615.894
205.4000,-33.4459,619.618
205.3000,-32.8592,623.406
205.2000,-31.7943,627.253
205.1000,-30.1787,631.16
205.0000,-28.5473,635.112
204.9000,-27.4878,639.091
204.8000,-27.1306,643.084
204.7000,-27.9176,647.085
204.6000,-28.9982,651.121
204.5000,-29.6748,655.212
204.4000,-30.6785,659.333
204.3000,-30.3291,663.551
204.2000,-29.8623,667.816
204.1000,-29.0527,672.13
204.0000,-28.7965,676.447
203.9000,-29.9405,680.743
203.8000,-31.3682,685.061
203.7000,-31.8011,681.853
203.6000,-31.5214,660.187
203.5000,-30.7747,629.327
203.4000,-30.0122,593.999
203.3000,-29.1105,556.302
203.2000,-27.7453,517.495
203.1000,-25.3922,501.724
203.0000,-23.1587,504.486
202.9000,-21.8226,509.822
202.8000,-20.216,515.367
202.7000,-20.2362,520.749
202.6000,-20.4054,526.045
202.5000,-20.4259,531.288
202.4000,-22.7039,536.439
202.3000,-23.3278,541.669
202.2000,-21.8768,546.954
202.1000,-18.4802,552.512
202.0000,-16.7091,572.463
201.9000,-18.4085,607.717
201.8000,-18.4239,650.253
201.7000,-19.4444,696.383
201.6000,-15.1463,744.681
201.5000,-11.19,789.828
201.4000,-9.61331,806.5
201.3000,-10.6626,812.286
201.2000,-11.9821,816.853
201.1000,-14.1251,821.418
201.0000,-16.5517,826.084
200.9000,-14.6635,830.966
200.8000,-15.3293,835.807
200.7000,-8.22179,840.888
200.6000,-4.22131,845.828
200.5000,-1.94099,850.683
200.4000,-2.48689,855.369
200.3000,-1.49842,860.095
200.2000,2.53481,864.818
200.1000,1.92721,869.302
200.0000,0.0721863,873.694
199.9000,-5.04976,877.868
199.8000,-9.08926,881.956
199.7000,-8.18892,886.111
199.6000,-9.90855,890.081
199.5000,-3.24435,894.229
199.4000,1.35813,898.133
199.3000,6.64359,901.922
199.2000,8.54164,905.493
199.1000,6.57834,908.747
199.0000,-3.20138,911.644
198.9000,-7.60299,914.559
198.8000,-2.76444,917.666
198.7000,8.10817,920.796
198.6000,10.0688,923.447
198.5000,15.2188,926.014
198.4000,20.3186,928.478
198.3000,23.4987,930.748
198.2000,24.7996,932.766
198.1000,23.3212,934.484
198.0000,22.6744,936.063
197.9000,26.8789,937.67
197.8000,29.8188,939.052
197.7000,32.4543,940.344
197.6000,30.469,941.343
197.5000,27.3798,942.193
197.4000,27.9928,942.926
197.3000,25.8817,943.389
197.2000,19.5463,943.664
197.1000,3.8806,943.461
197.0000,-7.39026,929.125
196.9000,-11.4633,919.615
196.8000,-17.9,906.845
196.7000,-18.7592,895.037
196.6000,-22.0227,888.202
196.5000,-20.4659,857.711
196.4000,-19.1398,830.867
196.3000,-20.8848,829.581
196.2000,-35.3,831.358
196.1000,-47.0119,833.45
196.0000,-53.2874,835.536
195.9000,-59.2161,837.653
195.8000,-54.1033,840.088
195.7000,-50.6471,842.491
195.6000,-44.5851,845.122
195.5000,-41.9435,847.488
195.4000,-42.9374,851.51
195.3000,-43.7543,871.435
195.2000,-50.2835,882.002
195.1000,-52.0484,900.576
195.0000,-51.7317,907.48
194.9000,-53.3417,924.451
194.8000,-55.0856,962.384
194.7000,-52.6454,980.41
194.6000,-45.1404,981.771
194.5000,-32.9701,982.144
194.4000,-24.8584,982.226
194.3000,-8.59574,982.683
194.2000,-1.76793,982.769
194.1000,-6.15053,982.718
194.0000,-8.52199,982.778
193.9000,-9.41776,982.902
193.8000,-10.7357,982.975
193.7000,-7.48356,983.143
193.6000,0.137494,983.577
193.5000,1.57387,983.496
193.4000,-3.46289,983.444
193.3000,-4.95945,967.428
193.2000,-2.3205,949.885
193.1000,-4.48962,950.958
193.0000,-5.72599,953.702
192.9000,-8.28766,956.484
192.8000,-15.8161,959.056
192.7000,-26.5077,961.655
192.6000,-35.387,964.205
192.5000,-38.7155,967.001
192.4000,-42.9023,969.679
192.3000,-45.2723,972.388
192.2000,-43.4266,975.192
192.1000,-39.538,978.138
192.0000,-35.5571,981.019
191.9000,-33.6742,983.931
191.8000,-29.6093,987.052
191.7000,-23.0233,992.036
191.6000,-19.8389,1018.86
191.5000,-19.0994,1029.73
191.4000,-19.5116,1030.28
191.3000,-24.1158,1030.14
191.2000,-30.1222,1029.95
191.1000,-28.8476,1029.98
191.0000,-29.2682,1029.97
190.9000,-29.9363,1029.94
190.8000,-25.1119,1030.09
190.7000,-19.7282,1030.26
190.6000,-16.4097,1030.37
190.5000,-15.6363,1030.39
190.4000,-21.4044,1030.21
190.3000,-23.9688,1030.13
190.2000,-28.4772,1029.98
190.1000,-34.6242,1029.79
190.0000,-38.3109,1029.67

##### Extended Information
[Comments]
Sample name,DL121 32.5C Lit
Comment
User,JM
Division
Company,UT Southwestern Medical Center at Dallas

[Detailed Information]
Creation date,5/1/2023 1:04 PM

Data array type,Linear data array * 2
Horizontal axis,Wavelength [nm]
Vertical axis(1),CD [mdeg]
Vertical axis(2),HT [V]
Start,250 nm
End,190 nm
Data interval,0.1 nm
Data points,601     

[Measurement Information]
Instrument name,Jasco CD
Model name,J-815
Serial No.,B064061168

Accessory,CDF-426S
Accessory S/N,A00861183
  Temperature,32.48 C
  Control sonsor,Holder
  Monitor sensor,Holder
  Start Mode,Keep target temperature +/-0.10 deg C while 5 seconds
  Cell length,10 mm

Measurement date,5/1/2023 1:04 PM

Photometric mode,CD, HT
Measure range,250 - 190 nm
Data pitch,0.1 nm
Sensitivity,Standard
D.I.T.,1 sec
Bandwidth,1.00 nm
Start mode,Immediately
Scanning speed,100 nm/min
Baseline correction,None
Shutter control,Manual
CD detector,PMT
PMT voltage,Auto
No. of cycle,1/3

Concentration,0.7 (w/v)%
Solvent,50mM nap04 ph 6.5 100mM NaF

