TITLE,DL121 65C Lit
DATA TYPE,
ORIGIN,JASCO
OWNER,
DATE,23/05/01
TIME,15:11:39
SPECTROMETER/DATA SYSTEM,
LOCALE,1033
RESOLUTION,
DELTAX,-0.1
XUNITS,NANOMETERS
YUNITS,CD [mdeg]
Y2UNITS,HT [V]
FIRSTX,  250.0000
LASTX,  190.0000
NPOINTS,     601
FIRSTY,    -1.22401
MAXY,    43.10766
MINY,   -48.83895
XYDATA
250.0000,-1.22401,297.474
249.9000,-1.20437,297.54
249.8000,-1.1397,297.616
249.7000,-1.11159,297.692
249.6000,-1.0724,297.769
249.5000,-1.0486,297.852
249.4000,-1.0049,297.928
249.3000,-1.00808,298.003
249.2000,-1.04964,298.08
249.1000,-1.05003,298.155
249.0000,-1.01806,298.226
248.9000,-1.02276,298.304
248.8000,-1.04332,298.388
248.7000,-1.05599,298.472
248.6000,-1.04558,298.556
248.5000,-1.05276,298.634
248.4000,-1.07266,298.709
248.3000,-1.10284,298.79
248.2000,-1.08732,298.875
248.1000,-1.10689,298.954
248.0000,-1.17266,299.031
247.9000,-1.24432,299.107
247.8000,-1.32724,299.184
247.7000,-1.394,299.268
247.6000,-1.43403,299.354
247.5000,-1.45721,299.437
247.4000,-1.5359,299.522
247.3000,-1.63326,299.613
247.2000,-1.6456,299.705
247.1000,-1.64656,299.801
247.0000,-1.65952,299.9
246.9000,-1.70371,300
246.8000,-1.73298,300.102
246.7000,-1.75475,300.202
246.6000,-1.81696,300.298
246.5000,-1.91911,300.401
246.4000,-1.97708,300.515
246.3000,-2.03202,300.632
246.2000,-2.0984,300.746
246.1000,-2.15085,300.86
246.0000,-2.18162,300.979
245.9000,-2.18007,301.104
245.8000,-2.19066,301.23
245.7000,-2.20429,301.354
245.6000,-2.25475,301.474
245.5000,-2.29451,301.59
245.4000,-2.30664,301.705
245.3000,-2.3727,301.82
245.2000,-2.45069,301.937
245.1000,-2.51779,302.058
245.0000,-2.56914,302.181
244.9000,-2.57031,302.312
244.8000,-2.63082,302.438
244.7000,-2.67518,302.565
244.6000,-2.66693,302.696
244.5000,-2.65017,302.835
244.4000,-2.64806,302.971
244.3000,-2.65659,303.109
244.2000,-2.69242,303.246
244.1000,-2.73191,303.387
244.0000,-2.7437,303.527
243.9000,-2.73645,303.666
243.8000,-2.78794,303.811
243.7000,-2.84797,303.962
243.6000,-2.9197,304.115
243.5000,-2.97834,304.27
243.4000,-3.02417,304.429
243.3000,-3.10284,304.587
243.2000,-3.18757,304.743
243.1000,-3.26087,304.904
243.0000,-3.34762,305.071
242.9000,-3.44954,305.242
242.8000,-3.55916,305.41
242.7000,-3.70264,305.574
242.6000,-3.8287,305.737
242.5000,-3.82938,304.83
242.4000,-3.70223,298.193
242.3000,-3.56658,293.579
242.2000,-3.45168,289.38
242.1000,-3.34331,285.983
242.0000,-3.27882,285.829
241.9000,-3.20357,286.011
241.8000,-3.1417,286.216
241.7000,-3.12922,286.424
241.6000,-3.10698,286.638
241.5000,-3.1267,286.852
241.4000,-3.1433,287.059
241.3000,-3.18522,287.264
241.2000,-3.19555,287.477
241.1000,-3.20284,287.698
241.0000,-3.27207,287.924
240.9000,-3.36159,288.151
240.8000,-3.68365,291.504
240.7000,-4.04913,298.222
240.6000,-4.40816,302.998
240.5000,-4.7615,307.613
240.4000,-5.06954,310.216
240.3000,-5.33465,310.576
240.2000,-5.59044,310.824
240.1000,-5.81247,311.067
240.0000,-5.99063,311.313
239.9000,-6.15256,311.569
239.8000,-6.26013,311.831
239.7000,-6.39386,312.098
239.6000,-6.52154,312.373
239.5000,-6.70578,312.649
239.4000,-6.82817,312.929
239.3000,-6.89013,313.22
239.2000,-6.97327,313.515
239.1000,-7.05099,313.809
239.0000,-7.16164,314.108
238.9000,-7.28887,314.415
238.8000,-7.40889,314.729
238.7000,-7.48916,315.045
238.6000,-7.60363,315.362
238.5000,-7.6691,315.685
238.4000,-7.74669,316.016
238.3000,-7.83873,316.353
238.2000,-7.9534,316.694
238.1000,-8.06894,317.045
238.0000,-8.17161,317.401
237.9000,-8.24364,317.76
237.8000,-8.33871,318.127
237.7000,-8.47571,318.5
237.6000,-8.67465,318.875
237.5000,-8.85912,319.259
237.4000,-9.03759,319.646
237.3000,-9.1351,320.035
237.2000,-9.19944,320.425
237.1000,-9.30756,320.822
237.0000,-9.43293,321.226
236.9000,-9.53998,321.643
236.8000,-9.66633,322.067
236.7000,-9.77678,322.496
236.6000,-9.93748,322.932
236.5000,-10.0955,323.377
236.4000,-10.2439,323.832
236.3000,-10.3719,324.295
236.2000,-10.4932,324.766
236.1000,-10.6475,325.242
236.0000,-10.7689,325.722
235.9000,-10.8833,326.208
235.8000,-10.9776,326.705
235.7000,-11.078,327.215
235.6000,-11.1695,327.736
235.5000,-11.2915,328.264
235.4000,-11.4627,328.795
235.3000,-11.6142,329.333
235.2000,-11.805,329.873
235.1000,-12.0162,330.417
235.0000,-12.1815,330.967
234.9000,-12.2824,331.525
234.8000,-12.4443,332.089
234.7000,-12.6341,332.658
234.6000,-12.9283,333.226
234.5000,-13.1912,333.804
234.4000,-13.3909,334.391
234.3000,-13.5982,334.987
234.2000,-13.8194,335.589
234.1000,-14.0055,336.2
234.0000,-14.2218,336.819
233.9000,-14.4653,337.442
233.8000,-14.6657,338.071
233.7000,-14.8107,338.705
233.6000,-14.9827,339.35
233.5000,-15.1298,340.006
233.4000,-15.2922,340.671
233.3000,-15.4563,341.337
233.2000,-15.6676,342.002
233.1000,-15.8889,342.672
233.0000,-16.0234,343.355
232.9000,-16.1003,344.046
232.8000,-16.2286,344.735
232.7000,-16.3726,345.431
232.6000,-16.5721,346.13
232.5000,-16.7419,346.841
232.4000,-16.8875,347.555
232.3000,-16.959,348.275
232.2000,-17.1512,348.995
232.1000,-17.3764,349.725
232.0000,-17.5472,350.464
231.9000,-17.7134,351.202
231.8000,-17.8774,351.944
231.7000,-18.1285,352.691
231.6000,-18.3546,353.451
231.5000,-18.5347,354.217
231.4000,-18.7905,354.983
231.3000,-19.1051,355.755
231.2000,-19.4544,356.526
231.1000,-19.6975,357.308
231.0000,-19.8383,358.097
230.9000,-19.996,358.89
230.8000,-20.1452,359.681
230.7000,-20.3571,360.477
230.6000,-20.5131,361.276
230.5000,-20.6226,362.078
230.4000,-20.7828,362.882
230.3000,-20.9579,363.688
230.2000,-21.0856,364.502
230.1000,-21.1483,365.317
230.0000,-21.2443,366.131
229.9000,-21.4874,366.937
229.8000,-21.6803,367.745
229.7000,-21.8142,368.559
229.6000,-21.9735,369.377
229.5000,-22.1022,370.201
229.4000,-22.3778,371.018
229.3000,-22.6005,371.835
229.2000,-22.7706,372.65
229.1000,-22.9836,373.472
229.0000,-23.267,374.296
228.9000,-23.6204,375.124
228.8000,-23.9134,375.955
228.7000,-24.2325,376.784
228.6000,-24.5333,377.608
228.5000,-24.97,378.431
228.4000,-25.4427,379.259
228.3000,-25.8642,380.093
228.2000,-26.0729,380.936
228.1000,-26.2999,381.779
228.0000,-26.4987,382.62
227.9000,-26.6238,383.457
227.8000,-26.7244,384.292
227.7000,-26.9851,385.128
227.6000,-27.2355,385.969
227.5000,-27.5281,386.806
227.4000,-27.7133,387.636
227.3000,-27.9317,388.456
227.2000,-28.0943,389.277
227.1000,-28.2919,390.097
227.0000,-28.4242,390.922
226.9000,-28.5012,391.749
226.8000,-28.4733,392.579
226.7000,-28.4845,393.407
226.6000,-28.5743,394.233
226.5000,-28.7179,395.055
226.4000,-28.8733,395.875
226.3000,-29.0085,396.7
226.2000,-29.2053,397.527
226.1000,-29.2766,398.358
226.0000,-29.2183,399.19
225.9000,-29.2074,400.014
225.8000,-29.3165,400.833
225.7000,-29.5672,401.654
225.6000,-29.6833,402.478
225.5000,-29.7797,403.298
225.4000,-29.8576,401.184
225.3000,-29.3475,388.609
225.2000,-28.3814,370.273
225.1000,-27.1149,349.233
225.0000,-25.5605,329.714
224.9000,-24.2242,327.754
224.8000,-23.4476,328.409
224.7000,-23.1491,329.229
224.6000,-23.023,330.055
224.5000,-23.1076,330.874
224.4000,-23.3515,331.692
224.3000,-23.535,332.512
224.2000,-23.6183,333.339
224.1000,-23.6016,334.167
224.0000,-23.6261,334.993
223.9000,-23.7529,335.819
223.8000,-23.9644,336.658
223.7000,-24.4939,343.919
223.6000,-25.8315,360.57
223.5000,-27.4743,381.652
223.4000,-29.2891,404.888
223.3000,-31.2382,420.23
223.2000,-32.6502,422.093
223.1000,-33.5727,422.965
223.0000,-34.2933,423.765
222.9000,-34.8446,424.565
222.8000,-35.1773,425.367
222.7000,-35.6442,426.158
222.6000,-36.2682,426.946
222.5000,-36.8461,427.74
222.4000,-37.5121,428.535
222.3000,-38.0622,429.333
222.2000,-38.4401,430.134
222.1000,-38.7467,430.932
222.0000,-38.8717,431.733
221.9000,-39.1027,432.535
221.8000,-39.3163,433.343
221.7000,-39.5176,434.153
221.6000,-39.8989,434.957
221.5000,-40.3733,435.759
221.4000,-40.8282,436.559
221.3000,-41.1671,437.366
221.2000,-41.5708,438.17
221.1000,-41.82,438.979
221.0000,-41.8178,439.799
220.9000,-41.824,440.623
220.8000,-41.8971,441.443
220.7000,-41.8276,442.271
220.6000,-42.0665,443.101
220.5000,-42.23,443.936
220.4000,-42.4443,444.776
220.3000,-42.7212,445.622
220.2000,-42.8243,446.467
220.1000,-43.0678,447.308
220.0000,-43.2285,448.156
219.9000,-43.2758,449.014
219.8000,-43.1378,449.883
219.7000,-42.9383,450.752
219.6000,-42.9261,451.613
219.5000,-43.0703,452.471
219.4000,-43.2665,453.335
219.3000,-43.4333,454.201
219.2000,-43.4882,455.083
219.1000,-43.6501,455.97
219.0000,-43.9827,456.848
218.9000,-44.177,457.723
218.8000,-44.183,458.6
218.7000,-43.9221,459.485
218.6000,-43.7516,460.376
218.5000,-43.6903,461.286
218.4000,-43.6819,462.194
218.3000,-43.6974,463.1
218.2000,-43.9629,463.992
218.1000,-44.301,464.887
218.0000,-44.6666,465.79
217.9000,-44.807,466.719
217.8000,-44.8046,467.661
217.7000,-44.9399,468.601
217.6000,-45.2868,469.539
217.5000,-45.7576,470.463
217.4000,-46.0598,471.399
217.3000,-46.2726,472.352
217.2000,-46.5009,473.324
217.1000,-46.7085,474.309
217.0000,-47.0118,475.301
216.9000,-47.1896,476.303
216.8000,-47.2308,477.318
216.7000,-47.3846,478.341
216.6000,-47.6406,479.384
216.5000,-47.6928,480.458
216.4000,-47.6442,481.554
216.3000,-47.8169,482.651
216.2000,-48.0402,483.749
216.1000,-48.1247,484.862
216.0000,-48.1191,485.987
215.9000,-47.9189,487.133
215.8000,-47.3276,488.309
215.7000,-46.845,489.488
215.6000,-46.3702,490.67
215.5000,-46.1782,491.854
215.4000,-46.3403,493.04
215.3000,-46.3156,494.244
215.2000,-46.6424,495.45
215.1000,-47.068,496.666
215.0000,-47.1796,497.905
214.9000,-47.1029,499.156
214.8000,-47.3086,500.408
214.7000,-47.506,501.67
214.6000,-47.2598,502.968
214.5000,-47.2972,504.272
214.4000,-47.3123,505.592
214.3000,-47.1552,506.932
214.2000,-47.3582,508.287
214.1000,-47.5638,509.665
214.0000,-47.4778,511.077
213.9000,-47.6089,512.505
213.8000,-47.4156,513.964
213.7000,-46.7933,515.47
213.6000,-46.3438,516.988
213.5000,-45.9105,518.523
213.4000,-45.3314,520.08
213.3000,-44.6733,521.656
213.2000,-44.0995,523.248
213.1000,-43.7979,524.852
213.0000,-43.3647,526.481
212.9000,-42.7309,528.142
212.8000,-42.1503,529.829
212.7000,-41.6704,531.542
212.6000,-41.1105,533.276
212.5000,-40.5882,535.03
212.4000,-40.2571,536.802
212.3000,-40.3107,538.584
212.2000,-40.1345,540.398
212.1000,-40.1364,542.228
212.0000,-39.9216,544.079
211.9000,-39.1838,545.961
211.8000,-38.5889,547.867
211.7000,-38.6705,549.784
211.6000,-39.2469,551.72
211.5000,-39.2904,553.7
211.4000,-39.0076,555.724
211.3000,-39.1659,557.763
211.2000,-39.3621,559.825
211.1000,-39.6101,561.905
211.0000,-40.4186,564
210.9000,-41.1595,566.136
210.8000,-41.9853,568.297
210.7000,-42.2962,570.507
210.6000,-41.4958,572.788
210.5000,-40.9206,575.088
210.4000,-40.5039,577.422
210.3000,-40.5118,579.791
210.2000,-40.2774,582.211
210.1000,-39.8685,584.667
210.0000,-39.7097,587.15
209.9000,-39.3828,589.682
209.8000,-39.1041,592.247
209.7000,-38.9568,594.838
209.6000,-38.6159,597.479
209.5000,-38.6586,600.149
209.4000,-38.2256,602.875
209.3000,-36.7699,605.66
209.2000,-35.0867,608.479
209.1000,-33.7499,611.328
209.0000,-33.4341,614.193
208.9000,-34.1826,617.075
208.8000,-34.2084,620.026
208.7000,-34.5074,623.005
208.6000,-34.3058,626.042
208.5000,-34.4971,629.123
208.4000,-34.8454,632.244
208.3000,-34.3232,626.677
208.2000,-33.3116,604.772
208.1000,-31.7635,575.265
208.0000,-30.0721,542.058
207.9000,-27.7563,506.897
207.8000,-25.4829,470.681
207.7000,-23.4607,455.547
207.6000,-22.404,457.535
207.5000,-21.5811,461.681
207.4000,-20.0188,466.083
207.3000,-18.8805,470.46
207.2000,-18.3192,474.821
207.1000,-17.7068,479.212
207.0000,-16.9937,483.639
206.9000,-17.1129,488.062
206.8000,-16.4666,492.529
206.7000,-15.5012,497.517
206.6000,-14.8112,517.446
206.5000,-16.5203,550.325
206.4000,-18.5207,589.229
206.3000,-20.1215,631.233
206.2000,-21.5993,674.959
206.1000,-24.0382,716.26
206.0000,-26.0273,730.824
205.9000,-25.8477,736.05
205.8000,-26.8669,740.302
205.7000,-26.9824,744.567
205.6000,-28.3848,748.89
205.5000,-27.4773,753.372
205.4000,-29.0767,757.815
205.3000,-30.3016,762.303
205.2000,-29.8272,766.879
205.1000,-29.0962,771.508
205.0000,-26.5362,776.227
204.9000,-24.7841,780.928
204.8000,-24.7028,785.572
204.7000,-26.1215,790.16
204.6000,-26.6749,794.763
204.5000,-26.4638,799.381
204.4000,-24.1676,804.033
204.3000,-20.5685,808.721
204.2000,-18.3384,813.317
204.1000,-18.2828,817.832
204.0000,-15.5854,822.407
203.9000,-15.4526,826.888
203.8000,-19.8961,831.165
203.7000,-20.2765,835.545
203.6000,-17.882,840.03
203.5000,-14.3185,844.464
203.4000,-10.9671,848.899
203.3000,-9.77903,853.191
203.2000,-8.47194,857.461
203.1000,-3.55317,861.782
203.0000,-2.52018,865.921
202.9000,-0.0901428,870.025
202.8000,2.11623,874.016
202.7000,2.69365,877.862
202.6000,0.650125,881.542
202.5000,1.47703,885.167
202.4000,2.83651,888.694
202.3000,-3.95597,891.858
202.2000,-8.42775,894.911
202.1000,-6.46032,898.085
202.0000,-4.01342,901.153
201.9000,-9.72904,903.737
201.8000,-19.2219,906.098
201.7000,-24.5888,908.463
201.6000,-24.6944,910.873
201.5000,-24.3438,913.097
201.4000,-27.3,914.979
201.3000,-27.8222,916.52
201.2000,-29.0138,918.121
201.1000,-28.4353,919.646
201.0000,-27.6946,921.052
200.9000,-27.9394,922.374
200.8000,-25.2551,923.475
200.7000,-14.6836,924.835
200.6000,-3.26638,926.093
200.5000,4.22905,926.216
200.4000,5.83025,913.846
200.3000,3.48824,906.481
200.2000,5.13794,903.999
200.1000,9.70008,899.084
200.0000,9.24421,869.4
199.9000,7.02229,843.819
199.8000,5.77762,844.849
199.7000,6.53361,850.116
199.6000,11.1361,855.669
199.5000,7.55917,860.888
199.4000,3.14682,866.007
199.3000,0.594556,871.008
199.2000,1.96911,876.243
199.1000,2.25699,881.356
199.0000,3.43912,886.494
198.9000,5.93227,891.773
198.8000,8.20736,901.836
198.7000,7.7019,916.959
198.6000,10.5857,931.912
198.5000,14.7854,936.53
198.4000,22.3613,955.482
198.3000,22.9465,995.112
198.2000,18.1769,1014.18
198.1000,16.9014,1015.35
198.0000,16.4318,1015.36
197.9000,17.1914,1015.19
197.8000,28.3515,1015.32
197.7000,34.0784,1015.31
197.6000,36.9054,1015.05
197.5000,41.662,1014.68
197.4000,39.56,1014.24
197.3000,36.5707,1013.94
197.2000,34.5864,1013.36
197.1000,35.144,1012.91
197.0000,37.119,1012.8
196.9000,35.2263,1012.31
196.8000,32.9416,1011.96
196.7000,27.4325,1011.59
196.6000,31.1594,1011.48
196.5000,43.1077,1011.3
196.4000,42.0611,1006.9
196.3000,40.8871,988.62
196.2000,34.7749,987.901
196.1000,27.7915,988.751
196.0000,22.036,989.787
195.9000,12.2243,990.584
195.8000,-0.753607,991.773
195.7000,-4.896,992.825
195.6000,-7.59548,993.819
195.5000,-3.68087,995.423
195.4000,-6.27042,996.649
195.3000,-9.6315,997.749
195.2000,-11.6119,999.089
195.1000,-14.6378,1000.32
195.0000,-9.44917,1001.82
194.9000,-6.64522,1003.27
194.8000,-7.96527,1004.87
194.7000,0.470395,1017.61
194.6000,7.76132,1030.73
194.5000,14.9366,1031.3
194.4000,18.8464,1031.41
194.3000,25.5741,1031.62
194.2000,32.1932,1031.82
194.1000,34.0673,1031.88
194.0000,26.1107,1031.63
193.9000,21.854,1031.5
193.8000,13.7348,1031.25
193.7000,12.0222,1031.19
193.6000,12.4431,1031.21
193.5000,4.34536,1030.94
193.4000,-4.03079,1030.67
193.3000,-7.69569,1030.56
193.2000,-8.90307,1030.53
193.1000,-8.10397,1030.55
193.0000,-14.085,1030.38
192.9000,-18.6105,1030.24
192.8000,-22.2444,1030.13
192.7000,-23.1443,1030.1
192.6000,-22.2454,1030.13
192.5000,-17.008,1030.29
192.4000,-12.9055,1030.42
192.3000,-3.12012,1030.72
192.2000,2.97981,1030.91
192.1000,10.1511,1031.14
192.0000,13.8808,1031.26
191.9000,20.5241,1031.47
191.8000,28.0882,1031.72
191.7000,26.3079,1031.66
191.6000,17.7981,1031.39
191.5000,10.6147,1031.17
191.4000,8.85248,1031.12
191.3000,1.2287,1030.76
191.2000,-2.26241,1008.97
191.1000,-6.77963,964.885
191.0000,-10.848,911.806
190.9000,-15.9027,854.425
190.8000,-20.3583,794.93
190.7000,-23.2605,734.366
190.6000,-27.4922,684.089
190.5000,-31.4154,668.205
190.4000,-35.6576,666.8
190.3000,-44.4935,666.317
190.2000,-48.8389,666.134
190.1000,-44.2696,666.246
190.0000,-39.2482,666.407

##### Extended Information
[Comments]
Sample name,DL121 65C Lit
Comment
User,JM
Division
Company,UT Southwestern Medical Center at Dallas

[Detailed Information]
Creation date,5/1/2023 3:11 PM

Data array type,Linear data array * 2
Horizontal axis,Wavelength [nm]
Vertical axis(1),CD [mdeg]
Vertical axis(2),HT [V]
Start,250 nm
End,190 nm
Data interval,0.1 nm
Data points,601     

[Measurement Information]
Instrument name,Jasco CD
Model name,J-815
Serial No.,B064061168

Accessory,CDF-426S
Accessory S/N,A00861183
  Temperature,64.99 C
  Control sonsor,Holder
  Monitor sensor,Holder
  Start Mode,Keep target temperature +/-0.10 deg C while 5 seconds
  Cell length,10 mm

Measurement date,5/1/2023 3:11 PM

Photometric mode,CD, HT
Measure range,250 - 190 nm
Data pitch,0.1 nm
Sensitivity,Standard
D.I.T.,1 sec
Bandwidth,1.00 nm
Start mode,Immediately
Scanning speed,100 nm/min
Baseline correction,None
Shutter control,Manual
CD detector,PMT
PMT voltage,Auto
No. of cycle,2/3

Concentration,0.7 (w/v)%
Solvent,50mM nap04 ph 6.5 100mM NaF

