TITLE,DL121 80C Dark
DATA TYPE,
ORIGIN,JASCO
OWNER,
DATE,23/05/01
TIME,15:44:42
SPECTROMETER/DATA SYSTEM,
LOCALE,1033
RESOLUTION,
DELTAX,-0.1
XUNITS,NANOMETERS
YUNITS,CD [mdeg]
Y2UNITS,HT [V]
FIRSTX,  250.0000
LASTX,  190.0000
NPOINTS,     601
FIRSTY,    -1.24777
MAXY,    57.14209
MINY,   -81.40136
XYDATA
250.0000,-1.24777,300.914
249.9000,-1.21269,300.995
249.8000,-1.19456,301.086
249.7000,-1.22487,301.178
249.6000,-1.26286,301.263
249.5000,-1.29668,301.352
249.4000,-1.26808,301.442
249.3000,-1.23415,301.532
249.2000,-1.24009,301.624
249.1000,-1.26472,301.714
249.0000,-1.2663,301.805
248.9000,-1.28951,301.895
248.8000,-1.25861,301.989
248.7000,-1.24234,302.081
248.6000,-1.26595,302.172
248.5000,-1.31253,302.261
248.4000,-1.40074,302.343
248.3000,-1.47781,302.431
248.2000,-1.51571,302.522
248.1000,-1.55263,302.609
248.0000,-1.61626,302.703
247.9000,-1.69875,302.795
247.8000,-1.77508,302.883
247.7000,-1.86679,302.97
247.6000,-1.99953,303.065
247.5000,-2.13924,303.159
247.4000,-2.25884,303.256
247.3000,-2.41205,303.353
247.2000,-2.50357,303.452
247.1000,-2.63065,303.55
247.0000,-2.78503,303.651
246.9000,-2.83889,303.757
246.8000,-2.85912,303.869
246.7000,-2.91143,303.983
246.6000,-2.96042,304.096
246.5000,-2.99825,304.214
246.4000,-3.04863,304.334
246.3000,-3.09768,304.455
246.2000,-3.13372,304.582
246.1000,-3.20301,304.712
246.0000,-3.23806,304.844
245.9000,-3.19926,304.976
245.8000,-3.14636,305.112
245.7000,-3.10599,305.248
245.6000,-3.06048,305.384
245.5000,-3.05776,305.517
245.4000,-3.10832,305.65
245.3000,-3.16223,305.789
245.2000,-3.27624,305.927
245.1000,-3.38658,306.068
245.0000,-3.41653,306.214
244.9000,-3.48022,306.358
244.8000,-3.55188,306.496
244.7000,-3.60315,306.639
244.6000,-3.61374,306.784
244.5000,-3.60932,306.933
244.4000,-3.61708,307.083
244.3000,-3.67623,307.232
244.2000,-3.78646,307.38
244.1000,-3.87416,307.527
244.0000,-3.95719,307.675
243.9000,-4.08692,307.828
243.8000,-4.16599,307.99
243.7000,-4.19818,308.153
243.6000,-4.22474,308.314
243.5000,-4.22397,308.476
243.4000,-4.19529,308.639
243.3000,-4.22394,308.804
243.2000,-4.24507,308.977
243.1000,-4.26583,309.156
243.0000,-4.32806,309.336
242.9000,-4.47437,309.515
242.8000,-4.57733,309.697
242.7000,-4.64888,309.887
242.6000,-4.65882,310.082
242.5000,-4.7075,310.276
242.4000,-4.75887,310.469
242.3000,-4.82173,310.664
242.2000,-4.91732,310.859
242.1000,-5.02951,311.054
242.0000,-5.11647,311.256
241.9000,-5.22392,311.46
241.8000,-5.37843,311.667
241.7000,-5.54003,311.878
241.6000,-5.67518,312.091
241.5000,-5.83671,312.304
241.4000,-5.92664,312.52
241.3000,-5.98606,312.744
241.2000,-6.00354,312.974
241.1000,-6.05459,313.202
241.0000,-6.1354,313.427
240.9000,-6.22621,313.655
240.8000,-6.24564,313.893
240.7000,-6.27222,314.136
240.6000,-6.3329,314.384
240.5000,-6.36861,314.642
240.4000,-6.45306,314.903
240.3000,-6.54085,315.168
240.2000,-6.58802,315.439
240.1000,-6.6644,315.707
240.0000,-6.7381,315.981
239.9000,-6.82816,316.261
239.8000,-6.90633,316.552
239.7000,-6.97899,316.846
239.6000,-7.11856,317.137
239.5000,-7.31767,317.428
239.4000,-7.51645,317.725
239.3000,-7.72821,318.034
239.2000,-7.93575,318.352
239.1000,-8.19978,318.677
239.0000,-8.35854,319.008
238.9000,-8.49106,319.336
238.8000,-8.5919,319.664
238.7000,-8.67785,319.997
238.6000,-8.78275,320.339
238.5000,-8.88981,320.694
238.4000,-8.97679,321.056
238.3000,-9.08463,321.42
238.2000,-9.20127,321.781
238.1000,-9.31779,322.144
238.0000,-9.38918,322.517
237.9000,-9.40621,322.906
237.8000,-9.42432,323.302
237.7000,-9.44136,323.705
237.6000,-9.52297,324.103
237.5000,-9.61048,324.497
237.4000,-9.72022,324.897
237.3000,-9.88292,325.305
237.2000,-10.0749,325.722
237.1000,-10.2607,326.147
237.0000,-10.4072,326.576
236.9000,-10.5285,327.007
236.8000,-10.6237,327.444
236.7000,-10.7916,327.89
236.6000,-10.9388,328.347
236.5000,-11.0899,328.818
236.4000,-11.286,329.297
236.3000,-11.5815,329.778
236.2000,-11.8338,330.262
236.1000,-12.0916,330.749
236.0000,-12.2887,331.243
235.9000,-12.4098,331.749
235.8000,-12.5189,332.271
235.7000,-12.6775,332.802
235.6000,-12.8318,333.339
235.5000,-12.9694,333.883
235.4000,-13.1504,334.43
235.3000,-13.3792,334.98
235.2000,-13.6687,335.531
235.1000,-13.9453,336.087
235.0000,-14.1469,336.652
234.9000,-14.3195,337.226
234.8000,-14.4712,337.803
234.7000,-14.6097,338.378
234.6000,-14.7452,338.955
234.5000,-14.7989,339.548
234.4000,-14.8874,340.151
234.3000,-15.0354,340.763
234.2000,-15.2093,341.381
234.1000,-15.405,341.997
234.0000,-15.5656,342.618
233.9000,-15.6585,343.246
233.8000,-15.8317,343.879
233.7000,-15.9805,344.523
233.6000,-16.0319,345.186
233.5000,-16.0872,345.856
233.4000,-16.1203,346.533
233.3000,-16.2426,347.21
233.2000,-16.4155,347.89
233.1000,-16.5533,348.582
233.0000,-16.6562,349.286
232.9000,-16.8046,349.999
232.8000,-17.0945,350.708
232.7000,-17.4264,351.419
232.6000,-17.7292,352.129
232.5000,-17.9243,352.848
232.4000,-18.0303,353.578
232.3000,-18.2631,354.314
232.2000,-18.4698,355.06
232.1000,-18.7128,355.812
232.0000,-18.9307,356.57
231.9000,-19.2397,357.329
231.8000,-19.507,358.096
231.7000,-19.817,358.865
231.6000,-20.1635,359.643
231.5000,-20.5007,360.426
231.4000,-20.7963,361.213
231.3000,-21.1247,362.005
231.2000,-21.3038,362.8
231.1000,-21.3652,363.602
231.0000,-21.4153,364.409
230.9000,-21.6406,365.219
230.8000,-21.9675,366.03
230.7000,-22.2536,366.849
230.6000,-22.4902,367.667
230.5000,-22.6502,368.486
230.4000,-22.7509,369.306
230.3000,-22.9335,370.123
230.2000,-22.9857,370.947
230.1000,-23.1098,371.771
230.0000,-23.2053,372.598
229.9000,-23.2572,373.424
229.8000,-23.425,374.247
229.7000,-23.6895,375.07
229.6000,-23.9302,375.897
229.5000,-24.1318,376.734
229.4000,-24.3128,377.58
229.3000,-24.4684,378.435
229.2000,-24.5356,379.284
229.1000,-24.6234,380.133
229.0000,-24.7036,380.981
228.9000,-24.9054,381.833
228.8000,-25.0784,382.695
228.7000,-25.1971,383.56
228.6000,-25.3503,384.427
228.5000,-25.5645,385.3
228.4000,-25.6711,386.177
228.3000,-25.8475,387.053
228.2000,-26.0504,387.926
228.1000,-26.2099,388.795
228.0000,-26.279,389.663
227.9000,-26.3435,390.526
227.8000,-26.558,391.384
227.7000,-26.8539,392.237
227.6000,-27.0457,393.09
227.5000,-27.204,393.942
227.4000,-27.3815,394.792
227.3000,-27.6068,395.639
227.2000,-27.7594,396.489
227.1000,-27.9303,397.335
227.0000,-28.281,398.168
226.9000,-28.6077,398.999
226.8000,-28.9336,399.821
226.7000,-29.3766,400.635
226.6000,-29.6743,401.456
226.5000,-29.8601,402.292
226.4000,-30.0421,403.135
226.3000,-30.1869,403.981
226.2000,-30.3458,404.826
226.1000,-30.5281,405.664
226.0000,-30.7511,406.5
225.9000,-31.028,407.339
225.8000,-31.289,408.182
225.7000,-31.4391,409.025
225.6000,-31.5626,409.867
225.5000,-31.8461,410.697
225.4000,-32.0366,411.532
225.3000,-32.14,412.37
225.2000,-32.3719,413.202
225.1000,-32.6563,414.033
225.0000,-32.9518,414.865
224.9000,-33.1696,415.693
224.8000,-33.4504,416.51
224.7000,-33.896,417.324
224.6000,-34.3987,418.135
224.5000,-34.8721,418.945
224.4000,-35.3398,419.756
224.3000,-35.704,420.57
224.2000,-36.1261,421.381
224.1000,-36.5869,422.187
224.0000,-37.071,422.994
223.9000,-37.4462,423.81
223.8000,-37.8262,424.626
223.7000,-38.1993,425.437
223.6000,-38.4905,426.251
223.5000,-38.6257,427.07
223.4000,-38.7061,427.892
223.3000,-38.6417,428.719
223.2000,-38.8635,429.535
223.1000,-38.7749,430.361
223.0000,-38.5091,431.191
222.9000,-38.3376,432.024
222.8000,-38.2647,432.856
222.7000,-38.2336,433.687
222.6000,-38.2731,434.512
222.5000,-38.3546,435.34
222.4000,-38.4355,436.173
222.3000,-38.5578,437.003
222.2000,-38.844,437.83
222.1000,-39.01,438.662
222.0000,-39.0831,439.504
221.9000,-39.192,440.348
221.8000,-39.2545,441.194
221.7000,-39.4283,442.038
221.6000,-39.6769,442.881
221.5000,-39.7888,443.736
221.4000,-40.0702,444.59
221.3000,-40.5035,445.44
221.2000,-40.8981,446.292
221.1000,-41.0947,447.149
221.0000,-41.1369,448.009
220.9000,-41.2225,448.872
220.8000,-41.3507,449.736
220.7000,-41.4803,450.609
220.6000,-41.4495,451.492
220.5000,-41.3106,452.373
220.4000,-41.3249,453.249
220.3000,-41.5972,454.118
220.2000,-42.0467,454.981
220.1000,-42.4814,455.857
220.0000,-42.909,456.742
219.9000,-43.3609,457.63
219.8000,-43.7666,458.517
219.7000,-43.9495,459.405
219.6000,-44.1884,460.293
219.5000,-44.3076,461.192
219.4000,-44.5434,462.093
219.3000,-44.789,462.999
219.2000,-44.9983,463.91
219.1000,-45.0998,464.824
219.0000,-45.0885,465.738
218.9000,-45.0574,466.655
218.8000,-45.1408,467.584
218.7000,-44.9736,468.533
218.6000,-44.7317,469.49
218.5000,-44.3579,470.458
218.4000,-44.266,471.412
218.3000,-44.1659,472.367
218.2000,-44.3134,473.318
218.1000,-44.5422,474.273
218.0000,-44.5871,475.246
217.9000,-44.3161,476.24
217.8000,-44.1317,477.238
217.7000,-43.8497,478.244
217.6000,-43.1139,479.278
217.5000,-42.521,480.309
217.4000,-41.9232,481.355
217.3000,-41.829,482.399
217.2000,-41.9969,483.45
217.1000,-41.9331,484.503
217.0000,-41.8211,485.559
216.9000,-41.5215,486.631
216.8000,-41.264,487.72
216.7000,-40.7719,488.83
216.6000,-40.4602,489.955
216.5000,-39.9255,491.106
216.4000,-39.5137,492.273
216.3000,-39.8453,493.429
216.2000,-40.2572,494.592
216.1000,-40.4881,495.773
216.0000,-41.0556,496.957
215.9000,-41.9642,498.146
215.8000,-42.5452,499.358
215.7000,-43.1676,500.576
215.6000,-43.2648,501.814
215.5000,-43.223,503.075
215.4000,-43.268,504.357
215.3000,-43.7317,505.643
215.2000,-44.2763,506.939
215.1000,-44.7052,508.25
215.0000,-45.0249,509.577
214.9000,-45.2041,510.913
214.8000,-45.3622,512.26
214.7000,-45.1717,513.628
214.6000,-44.6837,515.021
214.5000,-44.2557,516.435
214.4000,-43.5599,517.875
214.3000,-43.1383,519.324
214.2000,-42.574,520.796
214.1000,-42.0115,522.297
214.0000,-41.6338,523.819
213.9000,-41.4135,525.354
213.8000,-41.5502,526.892
213.7000,-41.6945,528.452
213.6000,-41.4791,530.049
213.5000,-41.279,531.666
213.4000,-41.0452,533.304
213.3000,-40.8284,534.963
213.2000,-40.6945,536.643
213.1000,-40.5137,538.351
213.0000,-40.8106,540.073
212.9000,-41.0074,541.82
212.8000,-41.2755,543.584
212.7000,-41.629,545.365
212.6000,-41.5135,547.19
212.5000,-41.5196,549.033
212.4000,-41.3891,550.906
212.3000,-41.2156,552.805
212.2000,-41.1569,554.721
212.1000,-41.4502,556.654
212.0000,-41.6129,558.621
211.9000,-41.9432,560.607
211.8000,-42.5321,562.618
211.7000,-43.1361,564.663
211.6000,-43.3793,566.749
211.5000,-43.5025,568.867
211.4000,-43.19,571.026
211.3000,-42.6104,573.226
211.2000,-42.0672,575.456
211.1000,-41.8584,577.704
211.0000,-41.4371,579.994
210.9000,-41.428,582.303
210.8000,-42.1843,584.624
210.7000,-42.7143,586.991
210.6000,-42.87,589.409
210.5000,-42.4112,591.891
210.4000,-42.1108,594.403
210.3000,-41.4595,596.966
210.2000,-40.5377,599.58
210.1000,-39.3935,602.236
210.0000,-38.7703,604.909
209.9000,-38.5241,607.625
209.8000,-38.6943,610.38
209.7000,-38.7517,613.174
209.6000,-38.9431,616.002
209.5000,-38.4268,618.901
209.4000,-37.4201,621.854
209.3000,-36.7378,624.841
209.2000,-35.6729,627.874
209.1000,-33.5368,630.979
209.0000,-31.4391,634.122
208.9000,-30.4255,637.281
208.8000,-28.946,640.508
208.7000,-27.3888,643.79
208.6000,-26.682,647.098
208.5000,-25.9423,650.456
208.4000,-24.3451,653.881
208.3000,-22.4961,657.368
208.2000,-21.0667,660.873
208.1000,-19.9527,664.402
208.0000,-18.4598,668
207.9000,-17.7191,671.613
207.8000,-18.2836,675.226
207.7000,-18.5828,678.91
207.6000,-19.8901,682.618
207.5000,-20.3004,686.403
207.4000,-20.9185,690.223
207.3000,-21.0285,694.088
207.2000,-20.3663,698.026
207.1000,-20.0405,701.997
207.0000,-18.9724,706.011
206.9000,-18.4053,710.047
206.8000,-19.1931,714.073
206.7000,-20.657,718.115
206.6000,-23.0445,722.16
206.5000,-24.6051,726.278
206.4000,-24.8339,730.491
206.3000,-25.0613,734.759
206.2000,-23.5264,739.1
206.1000,-21.5268,743.469
206.0000,-19.545,747.826
205.9000,-16.9868,752.214
205.8000,-13.7552,756.631
205.7000,-14.0408,760.954
205.6000,-18.5897,765.134
205.5000,-23.6495,769.276
205.4000,-27.3007,773.449
205.3000,-28.4625,777.679
205.2000,-26.817,781.966
205.1000,-27.1675,786.166
205.0000,-27.6152,790.349
204.9000,-29.337,794.417
204.8000,-30.2395,798.477
204.7000,-34.4154,802.359
204.6000,-35.165,806.282
204.5000,-32.5583,810.25
204.4000,-28.3631,814.264
204.3000,-20.428,818.31
204.2000,-12.6699,822.319
204.1000,-4.2423,826.273
204.0000,1.8843,830.098
203.9000,6.40167,833.815
203.8000,11.7124,837.506
203.7000,14.2966,841.058
203.6000,18.9632,844.579
203.5000,25.1239,848.096
203.4000,32.7506,851.576
203.3000,38.1075,854.906
203.2000,42.3498,858.133
203.1000,49.2766,861.371
203.0000,56.3316,864.539
202.9000,57.1421,867.427
202.8000,51.5419,870.032
202.7000,44.8678,872.529
202.6000,39.3799,868.147
202.5000,31.1808,840.967
202.4000,23.3114,827.32
202.3000,21.1558,831.354
202.2000,16.4591,837.091
202.1000,10.8876,842.847
202.0000,3.74875,848.504
201.9000,-9.86311,853.896
201.8000,-18.3975,859.394
201.7000,-25.393,864.908
201.6000,-21.7551,870.674
201.5000,-23.5022,876.257
201.4000,-29.8195,881.557
201.3000,-34.8397,886.925
201.2000,-35.7769,892.356
201.1000,-30.3253,889.902
201.0000,-28.3188,875.401
200.9000,-28.4199,895.32
200.8000,-31.6653,934.045
200.7000,-41.0114,948.52
200.6000,-48.8126,953.325
200.5000,-51.6695,957.396
200.4000,-54.079,961.326
200.3000,-49.3838,965.382
200.2000,-41.3042,969.449
200.1000,-35.9251,973.288
200.0000,-35.005,976.911
199.9000,-40.1873,980.257
199.8000,-38.2564,983.709
199.7000,-33.9821,987.203
199.6000,-37.1486,990.299
199.5000,-44.8354,993.326
199.4000,-56.5252,1012.73
199.3000,-68.7937,1027.53
199.2000,-78.94,1028.29
199.1000,-81.4014,1028.25
199.0000,-71.9546,1028.55
198.9000,-61.806,1028.87
198.8000,-53.0584,1029.15
198.7000,-48.7149,1029.28
198.6000,-47.6807,1029.31
198.5000,-45.1886,1029.38
198.4000,-48.8434,1029.27
198.3000,-48.8063,1029.27
198.2000,-47.9201,1029.3
198.1000,-47.4985,1029.31
198.0000,-43.6747,1029.43
197.9000,-36.946,1029.64
197.8000,-30.9343,1029.83
197.7000,-21.976,1030.12
197.6000,-17.2136,1030.27
197.5000,-15.1405,1030.34
197.4000,-17.0148,1030.28
197.3000,-21.645,1030.13
197.2000,-26.6586,1029.97
197.1000,-31.1175,1029.83
197.0000,-29.5312,1029.88
196.9000,-28.7877,1029.9
196.8000,-27.8019,1029.93
196.7000,-25.4796,1030
196.6000,-21.3869,1030.13
196.5000,-17.9628,1030.23
196.4000,-14.7335,1030.33
196.3000,-13.7552,1030.36
196.2000,-6.94964,1030.56
196.1000,-3.32512,1030.67
196.0000,-2.62545,1030.7
195.9000,1.62425,1030.83
195.8000,7.10429,1031.01
195.7000,11.4833,1031.15
195.6000,15.4088,1031.27
195.5000,15.6081,1031.28
195.4000,16.9893,1031.32
195.3000,13.8742,1031.23
195.2000,10.1813,1031.11
195.1000,10.134,1031.11
195.0000,12.6281,1031.18
194.9000,12.9004,1031.19
194.8000,8.84291,1031.07
194.7000,-1.91538,1030.73
194.6000,-15.516,1030.31
194.5000,-25.1435,1030
194.4000,-30.7037,1029.83
194.3000,-28.0345,1029.91
194.2000,-29.4295,1029.87
194.1000,-28.914,1029.88
194.0000,-27.2819,1029.93
193.9000,-32.4609,1029.77
193.8000,-30.8633,1029.82
193.7000,-22.4507,1030.07
193.6000,-13.6593,1030.33
193.5000,-13.7311,1030.33
193.4000,-14.144,1030.31
193.3000,-12.6911,1030.35
193.2000,-13.7543,1030.32
193.1000,-13.5401,1030.32
193.0000,-7.38188,1030.52
192.9000,0.208847,1030.76
192.8000,7.84849,1031
192.7000,13.5685,1031.17
192.6000,17.6066,1031.29
192.5000,22.6482,1031.42
192.4000,26.518,1031.54
192.3000,26.044,1031.51
192.2000,30.0697,1031.62
192.1000,29.0747,1031.59
192.0000,16.7014,1031.22
191.9000,8.33533,1030.94
191.8000,5.18021,1030.83
191.7000,-8.98955,1030.39
191.6000,-20.3627,1030.03
191.5000,-29.3388,1029.73
191.4000,-37.3604,1029.42
191.3000,-39.4505,1029.33
191.2000,-43.0338,1029.2
191.1000,-44.8658,1029.12
191.0000,-48.0546,1028.99
190.9000,-45.473,1029.01
190.8000,-42.1136,1029.09
190.7000,-39.3025,1029.1
190.6000,-30.3813,1029.34
190.5000,-22.6608,1029.57
190.4000,-15.8925,1029.72
190.3000,-10.5255,1029.83
190.2000,-3.79036,1029.98
190.1000,7.78495,1030.25
190.0000,19.463,1030.59

##### Extended Information
[Comments]
Sample name,DL121 80C Dark
Comment
User,JM
Division
Company,UT Southwestern Medical Center at Dallas

[Detailed Information]
Creation date,5/1/2023 3:44 PM

Data array type,Linear data array * 2
Horizontal axis,Wavelength [nm]
Vertical axis(1),CD [mdeg]
Vertical axis(2),HT [V]
Start,250 nm
End,190 nm
Data interval,0.1 nm
Data points,601     

[Measurement Information]
Instrument name,Jasco CD
Model name,J-815
Serial No.,B064061168

Accessory,CDF-426S
Accessory S/N,A00861183
  Temperature,79.96 C
  Control sonsor,Holder
  Monitor sensor,Holder
  Start Mode,Keep target temperature +/-0.10 deg C while 5 seconds
  Cell length,10 mm

Measurement date,5/1/2023 3:44 PM

Photometric mode,CD, HT
Measure range,250 - 190 nm
Data pitch,0.1 nm
Sensitivity,Standard
D.I.T.,1 sec
Bandwidth,1.00 nm
Start mode,Immediately
Scanning speed,100 nm/min
Baseline correction,None
Shutter control,Manual
CD detector,PMT
PMT voltage,Auto
No. of cycle,2/3

Concentration,0.7 (w/v)%
Solvent,50mM nap04 ph 6.5 100mM NaF

