TITLE,DL121 32.5C Lit
DATA TYPE,
ORIGIN,JASCO
OWNER,
DATE,23/05/01
TIME,13:05:37
SPECTROMETER/DATA SYSTEM,
LOCALE,1033
RESOLUTION,
DELTAX,-0.1
XUNITS,NANOMETERS
YUNITS,CD [mdeg]
Y2UNITS,HT [V]
FIRSTX,  250.0000
LASTX,  190.0000
NPOINTS,     601
FIRSTY,    -0.27866
MAXY,    54.58490
MINY,   -45.24813
XYDATA
250.0000,-0.278659,286.041
249.9000,-0.299368,286.081
249.8000,-0.313031,286.13
249.7000,-0.325513,286.186
249.6000,-0.332452,286.239
249.5000,-0.365784,286.289
249.4000,-0.438779,286.333
249.3000,-0.474179,286.381
249.2000,-0.531088,286.436
249.1000,-0.594894,286.491
249.0000,-0.666397,286.547
248.9000,-0.697696,286.602
248.8000,-0.665778,286.652
248.7000,-0.624323,286.699
248.6000,-0.587482,286.751
248.5000,-0.559219,286.804
248.4000,-0.565735,286.857
248.3000,-0.583585,286.915
248.2000,-0.591544,286.973
248.1000,-0.579126,287.025
248.0000,-0.593991,287.076
247.9000,-0.648184,287.129
247.8000,-0.655749,287.185
247.7000,-0.673154,287.247
247.6000,-0.695105,287.311
247.5000,-0.718216,287.366
247.4000,-0.697424,287.421
247.3000,-0.685773,287.484
247.2000,-0.704575,287.55
247.1000,-0.752527,287.622
247.0000,-0.797592,287.696
246.9000,-0.81265,287.769
246.8000,-0.82457,287.841
246.7000,-0.815881,287.911
246.6000,-0.838162,287.98
246.5000,-0.833154,288.061
246.4000,-0.881601,288.146
246.3000,-0.891751,288.229
246.2000,-0.896631,288.31
246.1000,-0.931625,288.394
246.0000,-0.950613,288.478
245.9000,-0.996234,288.561
245.8000,-1.0376,288.645
245.7000,-1.12832,288.725
245.6000,-1.22146,288.806
245.5000,-1.29292,288.888
245.4000,-1.38475,288.969
245.3000,-1.4277,289.049
245.2000,-1.47721,289.129
245.1000,-1.5379,289.221
245.0000,-1.6111,289.319
244.9000,-1.69319,289.416
244.8000,-1.77433,289.504
244.7000,-1.83126,289.591
244.6000,-1.87343,289.686
244.5000,-1.88845,289.792
244.4000,-1.92747,289.894
244.3000,-1.96064,289.997
244.2000,-1.98857,290.103
244.1000,-2.01357,290.213
244.0000,-2.00201,290.323
243.9000,-2.02504,290.432
243.8000,-2.0703,290.543
243.7000,-2.14376,290.658
243.6000,-2.20476,290.775
243.5000,-2.23289,290.893
243.4000,-2.22505,291.01
243.3000,-2.18741,291.128
243.2000,-2.18441,291.244
243.1000,-2.19253,291.365
243.0000,-2.22033,291.49
242.9000,-2.25123,291.616
242.8000,-2.29215,291.744
242.7000,-2.32021,291.878
242.6000,-2.37848,292.014
242.5000,-2.44935,292.149
242.4000,-2.47682,291.884
242.3000,-2.46537,289.997
242.2000,-2.38024,288.297
242.1000,-2.25585,286.612
242.0000,-2.14048,285.074
241.9000,-2.10083,285.021
241.8000,-2.11207,285.17
241.7000,-2.17517,285.329
241.6000,-2.26807,285.492
241.5000,-2.36414,285.661
241.4000,-2.47895,285.83
241.3000,-2.64045,285.997
241.2000,-2.77726,286.168
241.1000,-2.93585,286.341
241.0000,-3.09222,286.515
240.9000,-3.201,286.69
240.8000,-3.27876,286.875
240.7000,-3.37364,288.157
240.6000,-3.52169,290.309
240.5000,-3.73177,292.341
240.4000,-3.94295,294.365
240.3000,-4.18354,295.794
240.2000,-4.35458,296.056
240.1000,-4.53335,296.26
240.0000,-4.67881,296.465
239.9000,-4.80009,296.677
239.8000,-4.88879,296.896
239.7000,-4.93891,297.123
239.6000,-4.96609,297.355
239.5000,-5.02849,297.584
239.4000,-5.11948,297.814
239.3000,-5.18608,298.052
239.2000,-5.24951,298.296
239.1000,-5.34612,298.539
239.0000,-5.47236,298.782
238.9000,-5.58811,299.03
238.8000,-5.70315,299.283
238.7000,-5.82868,299.544
238.6000,-5.98427,299.814
238.5000,-6.13667,300.093
238.4000,-6.24203,300.378
238.3000,-6.35793,300.665
238.2000,-6.46265,300.951
238.1000,-6.59009,301.24
238.0000,-6.73013,301.536
237.9000,-6.8574,301.837
237.8000,-6.96482,302.147
237.7000,-7.05182,302.465
237.6000,-7.18874,302.785
237.5000,-7.35844,303.108
237.4000,-7.54654,303.439
237.3000,-7.6959,303.78
237.2000,-7.7984,304.128
237.1000,-7.95735,304.486
237.0000,-8.11884,304.847
236.9000,-8.22198,305.212
236.8000,-8.33167,305.583
236.7000,-8.48926,305.961
236.6000,-8.68033,306.342
236.5000,-8.89084,306.728
236.4000,-9.13095,307.119
236.3000,-9.34857,307.522
236.2000,-9.57306,307.933
236.1000,-9.82261,308.347
236.0000,-10.0714,308.765
235.9000,-10.3171,309.187
235.8000,-10.5113,309.622
235.7000,-10.664,310.063
235.6000,-10.8367,310.505
235.5000,-11.0513,310.95
235.4000,-11.2063,311.399
235.3000,-11.3686,311.852
235.2000,-11.5438,312.312
235.1000,-11.7204,312.779
235.0000,-11.9209,313.25
234.9000,-12.115,313.734
234.8000,-12.289,314.227
234.7000,-12.4095,314.725
234.6000,-12.5276,315.226
234.5000,-12.6592,315.737
234.4000,-12.7689,316.258
234.3000,-12.9313,316.788
234.2000,-13.0687,317.326
234.1000,-13.2086,317.865
234.0000,-13.4336,318.411
233.9000,-13.7162,318.969
233.8000,-14.026,319.53
233.7000,-14.3014,320.098
233.6000,-14.5447,320.674
233.5000,-14.7665,321.254
233.4000,-14.8969,321.839
233.3000,-15.0129,322.428
233.2000,-15.1452,323.022
233.1000,-15.3361,323.62
233.0000,-15.5682,324.22
232.9000,-15.8503,324.822
232.8000,-16.1026,325.424
232.7000,-16.3292,326.029
232.6000,-16.5081,326.642
232.5000,-16.7585,327.262
232.4000,-17.0166,327.888
232.3000,-17.232,328.519
232.2000,-17.3981,329.152
232.1000,-17.4928,329.79
232.0000,-17.6283,330.434
231.9000,-17.8395,331.076
231.8000,-18.1184,331.72
231.7000,-18.441,332.371
231.6000,-18.8195,333.025
231.5000,-19.1586,333.679
231.4000,-19.4722,334.33
231.3000,-19.761,334.984
231.2000,-19.997,335.643
231.1000,-20.2954,336.307
231.0000,-20.551,336.968
230.9000,-20.8709,337.628
230.8000,-21.1959,338.282
230.7000,-21.4405,338.94
230.6000,-21.6213,339.593
230.5000,-21.7724,340.25
230.4000,-21.9498,340.911
230.3000,-22.1146,341.57
230.2000,-22.3404,342.226
230.1000,-22.5332,342.876
230.0000,-22.682,343.529
229.9000,-22.7329,344.187
229.8000,-22.8482,344.846
229.7000,-22.9653,345.511
229.6000,-23.1358,346.172
229.5000,-23.3759,346.826
229.4000,-23.6425,347.478
229.3000,-23.9296,348.131
229.2000,-24.168,348.789
229.1000,-24.4453,349.449
229.0000,-24.8526,350.101
228.9000,-25.287,350.751
228.8000,-25.8054,351.398
228.7000,-26.3939,352.037
228.6000,-26.7555,352.686
228.5000,-27.052,353.341
228.4000,-27.3202,354.001
228.3000,-27.6804,354.651
228.2000,-27.9979,355.297
228.1000,-28.3341,355.937
228.0000,-28.5493,356.576
227.9000,-28.7062,357.219
227.8000,-28.8482,357.863
227.7000,-29.0276,358.502
227.6000,-29.2868,359.132
227.5000,-29.4902,359.754
227.4000,-29.6728,360.375
227.3000,-29.7768,361
227.2000,-29.8194,361.632
227.1000,-29.7536,362.263
227.0000,-29.669,362.896
226.9000,-29.7444,363.518
226.8000,-29.9385,364.131
226.7000,-30.1531,364.74
226.6000,-30.3486,365.351
226.5000,-30.5589,365.965
226.4000,-30.7846,366.583
226.3000,-31.0397,367.197
226.2000,-31.313,367.804
226.1000,-31.5618,368.413
226.0000,-31.7239,369.023
225.9000,-31.8646,369.639
225.8000,-32.1044,370.252
225.7000,-32.2945,370.863
225.6000,-32.5295,371.465
225.5000,-32.8595,372.056
225.4000,-33.2837,372.638
225.3000,-33.7463,371.785
225.2000,-33.362,361.771
225.1000,-32.3631,354.813
225.0000,-31.0076,349.315
224.9000,-29.5225,345.019
224.8000,-28.4712,345.193
224.7000,-27.9045,345.794
224.6000,-27.7474,346.407
224.5000,-27.705,347.016
224.4000,-27.814,347.617
224.3000,-27.9108,348.217
224.2000,-28.015,348.814
224.1000,-28.1295,349.412
224.0000,-28.2732,350.011
223.9000,-28.4048,350.611
223.8000,-28.5448,351.209
223.7000,-28.5557,351.803
223.6000,-28.8389,356.42
223.5000,-29.9157,368.01
223.4000,-31.4168,375.2
223.3000,-33.1889,381.831
223.2000,-35.007,385.584
223.1000,-36.2681,386.275
223.0000,-37.1189,386.815
222.9000,-37.7622,387.352
222.8000,-38.2045,387.894
222.7000,-38.5896,388.442
222.6000,-38.9542,388.994
222.5000,-39.2727,389.549
222.4000,-39.4902,390.109
222.3000,-39.8403,390.659
222.2000,-40.1041,391.213
222.1000,-40.2984,391.776
222.0000,-40.4506,392.348
221.9000,-40.6114,392.916
221.8000,-40.7449,393.483
221.7000,-40.9266,394.044
221.6000,-41.0204,394.61
221.5000,-41.1064,395.186
221.4000,-41.2102,395.763
221.3000,-41.2793,396.344
221.2000,-41.286,396.929
221.1000,-41.2807,397.508
221.0000,-41.2181,398.092
220.9000,-41.3292,398.671
220.8000,-41.4606,399.244
220.7000,-41.5902,399.815
220.6000,-41.5419,400.397
220.5000,-41.5048,400.982
220.4000,-41.6476,401.566
220.3000,-41.7517,402.154
220.2000,-41.8662,402.742
220.1000,-41.934,403.333
220.0000,-41.989,403.917
219.9000,-42.038,404.498
219.8000,-42.0095,405.084
219.7000,-41.9676,405.676
219.6000,-41.8854,406.271
219.5000,-41.8372,406.861
219.4000,-41.8702,407.452
219.3000,-41.9066,408.033
219.2000,-41.8632,408.617
219.1000,-41.7219,409.212
219.0000,-41.5391,409.816
218.9000,-41.5383,410.418
218.8000,-41.4729,411.021
218.7000,-41.4141,411.614
218.6000,-41.3928,412.208
218.5000,-41.4126,412.81
218.4000,-41.4887,413.417
218.3000,-41.6073,414.032
218.2000,-41.8065,414.641
218.1000,-41.9747,415.247
218.0000,-42.3087,415.845
217.9000,-42.6228,416.449
217.8000,-42.729,417.071
217.7000,-42.7855,417.7
217.6000,-42.872,418.342
217.5000,-42.8008,418.993
217.4000,-42.764,419.641
217.3000,-42.7886,420.285
217.2000,-42.8807,420.929
217.1000,-42.9402,421.584
217.0000,-43.0979,422.248
216.9000,-43.0987,422.919
216.8000,-42.9536,423.595
216.7000,-42.8677,424.275
216.6000,-42.6064,424.973
216.5000,-42.4262,425.684
216.4000,-42.3666,426.4
216.3000,-42.0766,427.132
216.2000,-41.8605,427.867
216.1000,-41.7747,428.605
216.0000,-41.7063,429.348
215.9000,-41.6322,430.096
215.8000,-41.6059,430.851
215.7000,-41.7388,431.612
215.6000,-41.8665,432.384
215.5000,-41.9055,433.167
215.4000,-41.8816,433.952
215.3000,-41.6123,434.751
215.2000,-41.5073,435.559
215.1000,-41.3599,436.385
215.0000,-41.3226,437.216
214.9000,-41.4107,438.052
214.8000,-41.2759,438.899
214.7000,-41.0255,439.76
214.6000,-41.0111,440.624
214.5000,-41.0425,441.498
214.4000,-41.1404,442.383
214.3000,-41.205,443.286
214.2000,-41.2797,444.202
214.1000,-41.3512,445.121
214.0000,-41.3435,446.053
213.9000,-41.1936,447.006
213.8000,-41.1336,447.974
213.7000,-41.1315,448.965
213.6000,-41.118,449.971
213.5000,-41.21,450.984
213.4000,-41.2926,452.01
213.3000,-41.3082,453.053
213.2000,-41.3819,454.106
213.1000,-41.3933,455.178
213.0000,-41.654,456.258
212.9000,-41.6811,457.368
212.8000,-41.7567,458.49
212.7000,-41.6841,459.627
212.6000,-41.8291,460.763
212.5000,-41.9373,461.926
212.4000,-42.0027,463.118
212.3000,-41.9093,464.335
212.2000,-41.8786,465.568
212.1000,-41.9082,466.819
212.0000,-41.846,468.091
211.9000,-41.9302,469.369
211.8000,-42.117,470.657
211.7000,-42.1272,471.966
211.6000,-42.0529,473.294
211.5000,-42.0865,474.644
211.4000,-42.1337,476.02
211.3000,-41.908,477.42
211.2000,-41.8615,478.828
211.1000,-41.7375,480.258
211.0000,-41.6743,481.713
210.9000,-41.6956,483.195
210.8000,-41.9207,484.692
210.7000,-42.1312,486.21
210.6000,-42.3888,487.744
210.5000,-42.7495,489.296
210.4000,-42.9101,490.879
210.3000,-43.2952,492.487
210.2000,-43.4204,494.138
210.1000,-43.8407,495.817
210.0000,-44.3117,497.52
209.9000,-44.714,499.259
209.8000,-44.8693,501.032
209.7000,-45.1335,502.829
209.6000,-45.2481,504.673
209.5000,-45.1871,506.563
209.4000,-45.2038,508.48
209.3000,-45.1713,510.428
209.2000,-44.8134,512.418
209.1000,-44.2051,514.456
209.0000,-43.6417,516.538
208.9000,-42.9391,518.667
208.8000,-42.4667,520.824
208.7000,-42.0431,523.018
208.6000,-41.6985,525.246
208.5000,-41.6478,527.505
208.4000,-41.3052,529.809
208.3000,-41.0433,532.151
208.2000,-40.2288,530.274
208.1000,-38.7609,514.243
208.0000,-36.8399,490.491
207.9000,-34.7806,463.067
207.8000,-32.6053,433.732
207.7000,-30.2905,413.657
207.6000,-28.1078,413.668
207.5000,-26.4771,416.211
207.4000,-25.7009,418.992
207.3000,-25.093,421.829
207.2000,-24.5889,424.711
207.1000,-24.1118,427.639
207.0000,-23.9652,430.6
206.9000,-23.6935,433.606
206.8000,-23.3258,436.667
206.7000,-22.917,439.786
206.6000,-22.274,442.991
206.5000,-22.3521,455.348
206.4000,-22.5009,480.381
206.3000,-23.0524,511.498
206.2000,-24.7205,545.605
206.1000,-27.0576,581.329
206.0000,-29.5331,598.265
205.9000,-31.6224,602.877
205.8000,-33.0698,606.469
205.7000,-33.5206,610.044
205.6000,-33.5657,613.682
205.5000,-32.8887,617.398
205.4000,-31.4162,621.194
205.3000,-30.2698,625.036
205.2000,-29.3673,628.927
205.1000,-29.1438,632.851
205.0000,-28.9063,636.829
204.9000,-28.4941,640.866
204.8000,-27.5947,644.974
204.7000,-27.9175,649.099
204.6000,-29.2081,653.252
204.5000,-29.9172,657.471
204.4000,-28.7051,661.815
204.3000,-28.3794,666.193
204.2000,-27.5302,670.654
204.1000,-26.0099,675.184
204.0000,-25.1846,679.751
203.9000,-25.0939,684.336
203.8000,-25.1969,688.956
203.7000,-25.0246,693.639
203.6000,-24.3379,698.392
203.5000,-24.2539,703.173
203.4000,-23.5908,708.005
203.3000,-22.8388,712.868
203.2000,-23.4723,717.713
203.1000,-24.5771,722.569
203.0000,-23.5053,727.522
202.9000,-20.5144,732.544
202.8000,-20.3678,737.484
202.7000,-21.1073,742.404
202.6000,-21.457,747.329
202.5000,-20.0328,752.325
202.4000,-17.0478,757.364
202.3000,-14.2253,762.394
202.2000,-13.6426,767.345
202.1000,-15.6598,772.203
202.0000,-18.3598,777.017
201.9000,-18.4626,781.886
201.8000,-17.2649,786.754
201.7000,-14.9283,791.631
201.6000,-12.3808,796.47
201.5000,-7.34986,801.352
201.4000,-0.576593,806.213
201.3000,3.22541,810.936
201.2000,4.7091,815.517
201.1000,6.45836,820.053
201.0000,9.6204,824.543
200.9000,12.2191,828.951
200.8000,10.4654,833.147
200.7000,10.9128,837.308
200.6000,10.8365,841.392
200.5000,10.5047,845.356
200.4000,10.7046,849.231
200.3000,9.84373,852.967
200.2000,10.1865,856.634
200.1000,11.0232,860.208
200.0000,10.9269,863.648
199.9000,9.88875,866.942
199.8000,4.46697,869.924
199.7000,-5.23679,872.602
199.6000,-9.1712,875.318
199.5000,-14.3077,877.85
199.4000,-20.7383,880.208
199.3000,-25.2505,882.456
199.2000,-22.8371,884.812
199.1000,-19.8918,887.021
199.0000,-25.3916,888.804
198.9000,-32.4436,890.338
198.8000,-33.5156,892
198.7000,-30.3801,893.648
198.6000,-29.8614,895.102
198.5000,-33.5265,896.228
198.4000,-34.5579,897.347
198.3000,-35.2711,898.342
198.2000,-37.563,899.242
198.1000,-40.951,900.043
198.0000,-42.1037,900.733
197.9000,-42.9559,901.344
197.8000,-36.3075,902.19
197.7000,-27.843,902.805
197.6000,-23.7068,903.287
197.5000,-31.1037,902.234
197.4000,-34.9005,894.036
197.3000,-30.8915,886.694
197.2000,-24.6917,863.56
197.1000,-20.7259,862.814
197.0000,-19.594,866.463
196.9000,-8.83227,870.554
196.8000,-7.79536,874.304
196.7000,-12.0719,877.97
196.6000,-17.5963,881.486
196.5000,-16.8251,885.138
196.4000,-14.1006,888.926
196.3000,-6.90989,892.993
196.2000,0.309747,896.927
196.1000,4.77272,900.82
196.0000,2.01741,904.665
195.9000,4.09996,908.441
195.8000,8.59692,917.667
195.7000,7.67703,925.481
195.6000,2.92421,945.087
195.5000,2.13232,966.18
195.4000,3.73077,967.893
195.3000,0.852139,967.87
195.2000,-3.40496,967.829
195.1000,-3.90935,967.816
195.0000,0.516144,967.897
194.9000,6.78779,968.053
194.8000,7.70271,968.154
194.7000,8.85048,967.991
194.6000,3.05397,967.741
194.5000,-3.96543,967.418
194.4000,-5.71053,967.262
194.3000,-10.7698,967.08
194.2000,-20.3791,966.509
194.1000,-19.1614,966.527
194.0000,-12.7736,966.809
193.9000,-3.26788,967.081
193.8000,7.8215,967.397
193.7000,14.9045,967.553
193.6000,25.1495,967.957
193.5000,31.3071,968.248
193.4000,38.4149,968.398
193.3000,40.468,968.328
193.2000,38.8445,968.367
193.1000,40.3899,968.455
193.0000,43.4091,968.604
192.9000,42.8464,968.576
192.8000,39.774,968.559
192.7000,42.5353,968.56
192.6000,49.3242,968.793
192.5000,54.5849,969.175
192.4000,47.2198,968.855
192.3000,38.7091,968.625
192.2000,22.7471,967.97
192.1000,8.76094,967.581
192.0000,0.257459,967.372
191.9000,-8.6207,966.989
191.8000,-14.4406,966.524
191.7000,-15.3751,959.272
191.6000,-14.7398,932.865
191.5000,-11.1489,929.069
191.4000,-15.1991,932.405
191.3000,-20.4145,936.074
191.2000,-18.3954,939.934
191.1000,-18.3116,928.82
191.0000,-22.0493,892.198
190.9000,-23.5103,844.814
190.8000,-22.8075,792.334
190.7000,-17.452,737.32
190.6000,-10.6496,681.085
190.5000,-3.03426,634.895
190.4000,-2.91801,622.176
190.3000,-2.05637,622.95
190.2000,-5.9204,624.818
190.1000,-6.35308,627.343
190.0000,-8.73144,644.573

##### Extended Information
[Comments]
Sample name,DL121 32.5C Lit
Comment
User,JM
Division
Company,UT Southwestern Medical Center at Dallas

[Detailed Information]
Creation date,5/1/2023 1:05 PM

Data array type,Linear data array * 2
Horizontal axis,Wavelength [nm]
Vertical axis(1),CD [mdeg]
Vertical axis(2),HT [V]
Start,250 nm
End,190 nm
Data interval,0.1 nm
Data points,601     

[Measurement Information]
Instrument name,Jasco CD
Model name,J-815
Serial No.,B064061168

Accessory,CDF-426S
Accessory S/N,A00861183
  Temperature,32.49 C
  Control sonsor,Holder
  Monitor sensor,Holder
  Start Mode,Keep target temperature +/-0.10 deg C while 5 seconds
  Cell length,10 mm

Measurement date,5/1/2023 1:05 PM

Photometric mode,CD, HT
Measure range,250 - 190 nm
Data pitch,0.1 nm
Sensitivity,Standard
D.I.T.,1 sec
Bandwidth,1.00 nm
Start mode,Immediately
Scanning speed,100 nm/min
Baseline correction,None
Shutter control,Manual
CD detector,PMT
PMT voltage,Auto
No. of cycle,2/3

Concentration,0.7 (w/v)%
Solvent,50mM nap04 ph 6.5 100mM NaF

