TITLE,DL121 70C Dark
DATA TYPE,
ORIGIN,JASCO
OWNER,
DATE,23/05/01
TIME,15:22:10
SPECTROMETER/DATA SYSTEM,
LOCALE,1033
RESOLUTION,
DELTAX,-0.1
XUNITS,NANOMETERS
YUNITS,CD [mdeg]
Y2UNITS,HT [V]
FIRSTX,  250.0000
LASTX,  190.0000
NPOINTS,     601
FIRSTY,    -1.27973
MAXY,    56.16012
MINY,   -47.93109
XYDATA
250.0000,-1.27973,298.401
249.9000,-1.23103,298.474
249.8000,-1.16564,298.553
249.7000,-1.14315,298.633
249.6000,-1.13071,298.712
249.5000,-1.15128,298.793
249.4000,-1.17433,298.873
249.3000,-1.20837,298.954
249.2000,-1.27137,299.036
249.1000,-1.32478,299.117
249.0000,-1.39059,299.195
248.9000,-1.4091,299.274
248.8000,-1.41192,299.356
248.7000,-1.42731,299.438
248.6000,-1.48203,299.522
248.5000,-1.51921,299.604
248.4000,-1.54842,299.684
248.3000,-1.55839,299.771
248.2000,-1.5649,299.859
248.1000,-1.60242,299.947
248.0000,-1.61049,300.04
247.9000,-1.61266,300.13
247.8000,-1.62074,300.217
247.7000,-1.67723,300.306
247.6000,-1.70361,300.398
247.5000,-1.73039,300.485
247.4000,-1.73863,300.57
247.3000,-1.778,300.666
247.2000,-1.81322,300.767
247.1000,-1.84794,300.868
247.0000,-1.88523,300.967
246.9000,-1.92741,301.068
246.8000,-1.94477,301.176
246.7000,-1.97181,301.283
246.6000,-2.00378,301.39
246.5000,-2.06774,301.502
246.4000,-2.13726,301.613
246.3000,-2.21576,301.719
246.2000,-2.2987,301.829
246.1000,-2.36952,301.947
246.0000,-2.41456,302.068
245.9000,-2.45694,302.189
245.8000,-2.50076,302.318
245.7000,-2.54094,302.443
245.6000,-2.6065,302.561
245.5000,-2.64185,302.677
245.4000,-2.65703,302.801
245.3000,-2.7123,302.926
245.2000,-2.79068,303.048
245.1000,-2.90981,303.171
245.0000,-3.00562,303.3
244.9000,-3.12752,303.427
244.8000,-3.20645,303.552
244.7000,-3.27531,303.681
244.6000,-3.29907,303.818
244.5000,-3.30355,303.958
244.4000,-3.31932,304.095
244.3000,-3.39014,304.235
244.2000,-3.47723,304.375
244.1000,-3.56657,304.518
244.0000,-3.61126,304.67
243.9000,-3.64936,304.826
243.8000,-3.72073,304.982
243.7000,-3.77338,305.138
243.6000,-3.77639,305.298
243.5000,-3.74892,305.461
243.4000,-3.71878,305.624
243.3000,-3.69892,305.791
243.2000,-3.69196,305.958
243.1000,-3.71648,306.125
243.0000,-3.76348,306.293
242.9000,-3.84992,306.464
242.8000,-3.96275,306.64
242.7000,-4.04736,306.819
242.6000,-4.07039,307
242.5000,-4.09644,307.183
242.4000,-4.15445,307.363
242.3000,-4.19429,307.543
242.2000,-4.28253,307.725
242.1000,-4.40917,307.913
242.0000,-4.54854,308.105
241.9000,-4.6883,308.297
241.8000,-4.81129,308.49
241.7000,-4.94928,308.681
241.6000,-5.09879,308.874
241.5000,-5.23784,309.075
241.4000,-5.40401,309.283
241.3000,-5.49225,309.493
241.2000,-5.63053,309.704
241.1000,-5.76858,309.914
241.0000,-5.87961,310.127
240.9000,-5.99126,310.348
240.8000,-6.09234,310.575
240.7000,-6.1668,310.81
240.6000,-6.26542,311.046
240.5000,-6.35392,311.281
240.4000,-6.40663,311.52
240.3000,-6.52267,311.764
240.2000,-6.66702,312.015
240.1000,-6.77029,312.275
240.0000,-6.8858,312.541
239.9000,-6.95895,312.809
239.8000,-6.99272,313.082
239.7000,-6.99132,313.363
239.6000,-7.05858,313.649
239.5000,-7.09826,313.941
239.4000,-7.17653,314.235
239.3000,-7.29562,314.529
239.2000,-7.40116,314.827
239.1000,-7.54946,315.132
239.0000,-7.72743,315.439
238.9000,-7.8888,315.755
238.8000,-8.02567,316.08
238.7000,-8.16593,316.402
238.6000,-8.27906,316.733
238.5000,-8.44601,317.065
238.4000,-8.56748,317.404
238.3000,-8.65711,317.754
238.2000,-8.72521,318.112
238.1000,-8.87618,318.472
238.0000,-9.06944,318.835
237.9000,-9.21958,319.204
237.8000,-9.33589,319.576
237.7000,-9.42491,319.956
237.6000,-9.48938,320.343
237.5000,-9.51484,320.735
237.4000,-9.52972,321.134
237.3000,-9.62203,321.541
237.2000,-9.67873,321.956
237.1000,-9.71337,322.377
237.0000,-9.70235,322.798
236.9000,-9.70215,323.225
236.8000,-9.72867,323.666
236.7000,-9.81983,324.109
236.6000,-9.98253,324.555
236.5000,-10.1395,325.002
236.4000,-10.2757,325.457
236.3000,-10.4129,325.923
236.2000,-10.5298,326.398
236.1000,-10.6854,326.874
236.0000,-10.8306,327.353
235.9000,-10.9702,327.845
235.8000,-11.189,328.346
235.7000,-11.3361,328.854
235.6000,-11.4314,329.367
235.5000,-11.6084,329.881
235.4000,-11.8236,330.402
235.3000,-12.0474,330.933
235.2000,-12.1991,331.472
235.1000,-12.3401,332.017
235.0000,-12.4954,332.568
234.9000,-12.6154,333.127
234.8000,-12.7328,333.695
234.7000,-12.9021,334.263
234.6000,-13.0392,334.836
234.5000,-13.2303,335.421
234.4000,-13.3741,336.023
234.3000,-13.6047,336.626
234.2000,-13.9068,337.23
234.1000,-14.1494,337.838
234.0000,-14.3685,338.453
233.9000,-14.5098,339.081
233.8000,-14.6641,339.717
233.7000,-14.8523,340.36
233.6000,-15.0829,341.013
233.5000,-15.413,341.666
233.4000,-15.722,342.322
233.3000,-15.9614,342.986
233.2000,-16.2117,343.66
233.1000,-16.5137,344.34
233.0000,-16.7992,345.03
232.9000,-17.0284,345.724
232.8000,-17.2844,346.414
232.7000,-17.4875,347.11
232.6000,-17.6373,347.816
232.5000,-17.8516,348.535
232.4000,-18.0632,349.258
232.3000,-18.342,349.985
232.2000,-18.6387,350.714
232.1000,-18.7853,351.451
232.0000,-18.9595,352.197
231.9000,-19.1527,352.949
231.8000,-19.282,353.71
231.7000,-19.3374,354.48
231.6000,-19.435,355.254
231.5000,-19.6075,356.028
231.4000,-19.7834,356.805
231.3000,-19.9702,357.585
231.2000,-20.1482,358.368
231.1000,-20.2618,359.165
231.0000,-20.4222,359.965
230.9000,-20.5192,360.768
230.8000,-20.6381,361.565
230.7000,-20.7548,362.371
230.6000,-20.815,363.179
230.5000,-21.048,363.985
230.4000,-21.2896,364.794
230.3000,-21.4376,365.603
230.2000,-21.5821,366.415
230.1000,-21.732,367.225
230.0000,-21.9039,368.038
229.9000,-22.0357,368.85
229.8000,-22.1166,369.669
229.7000,-22.1298,370.496
229.6000,-22.2115,371.325
229.5000,-22.4046,372.158
229.4000,-22.6159,372.996
229.3000,-22.9624,373.832
229.2000,-23.3274,374.663
229.1000,-23.5973,375.5
229.0000,-23.9332,376.333
228.9000,-24.2827,377.174
228.8000,-24.5165,378.022
228.7000,-24.8321,378.868
228.6000,-25.1558,379.715
228.5000,-25.4123,380.57
228.4000,-25.6845,381.426
228.3000,-25.9634,382.279
228.2000,-26.2578,383.132
228.1000,-26.4452,383.985
228.0000,-26.6627,384.835
227.9000,-26.8629,385.683
227.8000,-27.092,386.524
227.7000,-27.2951,387.361
227.6000,-27.4457,388.199
227.5000,-27.6306,389.034
227.4000,-27.7475,389.868
227.3000,-27.8712,390.702
227.2000,-27.9576,391.536
227.1000,-28.0676,392.37
227.0000,-28.2265,393.2
226.9000,-28.3548,394.028
226.8000,-28.6076,394.848
226.7000,-28.9038,395.664
226.6000,-29.1777,396.492
226.5000,-29.5103,397.327
226.4000,-29.8706,398.161
226.3000,-30.3536,398.989
226.2000,-30.8775,399.812
226.1000,-31.2281,400.637
226.0000,-31.5312,401.455
225.9000,-31.8172,402.275
225.8000,-32.0765,403.103
225.7000,-32.2139,403.94
225.6000,-32.3645,404.775
225.5000,-32.6364,405.598
225.4000,-32.9434,406.416
225.3000,-33.1693,407.232
225.2000,-33.4264,408.046
225.1000,-33.5231,408.866
225.0000,-33.7255,409.691
224.9000,-34.007,410.504
224.8000,-34.2084,411.308
224.7000,-34.4612,412.103
224.6000,-34.5835,412.904
224.5000,-34.5671,413.717
224.4000,-34.7399,414.533
224.3000,-34.9017,415.357
224.2000,-34.9166,416.185
224.1000,-35.0807,417
224.0000,-35.4329,417.801
223.9000,-35.6136,418.61
223.8000,-35.7105,419.427
223.7000,-35.8694,420.239
223.6000,-36.1484,421.048
223.5000,-36.4366,421.856
223.4000,-36.7376,422.654
223.3000,-36.7869,423.463
223.2000,-36.8042,424.28
223.1000,-36.9207,425.1
223.0000,-37.1335,425.909
222.9000,-37.3814,426.706
222.8000,-37.6738,427.5
222.7000,-37.912,428.299
222.6000,-38.1632,429.106
222.5000,-38.5315,429.913
222.4000,-38.7221,430.729
222.3000,-38.8859,431.538
222.2000,-39.1096,432.347
222.1000,-39.3339,433.158
222.0000,-39.6673,433.975
221.9000,-39.9649,434.799
221.8000,-40.2094,435.628
221.7000,-40.4591,436.453
221.6000,-40.8359,437.268
221.5000,-41.1356,438.084
221.4000,-41.3197,438.91
221.3000,-41.5743,439.749
221.2000,-41.7505,440.594
221.1000,-41.9773,441.432
221.0000,-42.0935,442.267
220.9000,-42.1367,443.103
220.8000,-42.2499,443.936
220.7000,-42.2923,444.784
220.6000,-42.4961,445.637
220.5000,-42.8518,446.484
220.4000,-42.999,447.338
220.3000,-43.1341,448.195
220.2000,-43.2343,449.051
220.1000,-43.1211,449.917
220.0000,-43.0988,450.783
219.9000,-43.0321,451.656
219.8000,-43.0196,452.528
219.7000,-43.0148,453.405
219.6000,-42.9577,454.289
219.5000,-42.8235,455.176
219.4000,-42.9362,456.059
219.3000,-43.0306,456.942
219.2000,-43.0893,457.834
219.1000,-43.2424,458.729
219.0000,-43.4517,459.624
218.9000,-43.6098,460.523
218.8000,-43.6402,461.433
218.7000,-43.6647,462.342
218.6000,-43.5486,463.256
218.5000,-43.6965,464.17
218.4000,-44.2777,465.079
218.3000,-44.7021,466.004
218.2000,-45.0263,466.927
218.1000,-45.31,467.85
218.0000,-45.493,468.778
217.9000,-45.6367,469.721
217.8000,-45.6286,470.685
217.7000,-45.4992,471.657
217.6000,-45.5129,472.633
217.5000,-45.6727,473.606
217.4000,-45.7093,474.594
217.3000,-45.5098,475.598
217.2000,-45.3189,476.608
217.1000,-45.4765,477.612
217.0000,-45.6184,478.629
216.9000,-45.6278,479.67
216.8000,-45.4491,480.736
216.7000,-45.1369,481.818
216.6000,-44.9067,482.913
216.5000,-44.9026,484.022
216.4000,-44.8923,485.141
216.3000,-44.9567,486.269
216.2000,-45.1232,487.405
216.1000,-45.1601,488.56
216.0000,-45.1763,489.731
215.9000,-45.0255,490.919
215.8000,-44.7189,492.121
215.7000,-44.6178,493.325
215.6000,-44.8097,494.533
215.5000,-44.5331,495.779
215.4000,-44.0266,497.05
215.3000,-43.8517,498.322
215.2000,-43.9574,499.588
215.1000,-44.1938,500.855
215.0000,-44.3236,502.132
214.9000,-44.566,503.42
214.8000,-44.675,504.726
214.7000,-44.5834,506.057
214.6000,-44.4497,507.406
214.5000,-44.6781,508.757
214.4000,-44.8491,510.129
214.3000,-45.3163,511.515
214.2000,-45.7522,512.922
214.1000,-46.1344,514.352
214.0000,-46.3122,515.817
213.9000,-46.614,517.298
213.8000,-47.1502,518.784
213.7000,-47.3833,520.298
213.6000,-47.4709,521.838
213.5000,-47.4671,523.404
213.4000,-47.7478,524.99
213.3000,-47.8238,526.604
213.2000,-47.9311,528.242
213.1000,-47.8152,529.914
213.0000,-47.7963,531.606
212.9000,-47.5923,533.32
212.8000,-47.2899,535.055
212.7000,-47.0997,536.81
212.6000,-46.475,538.612
212.5000,-45.901,540.443
212.4000,-45.6097,542.292
212.3000,-45.3917,544.159
212.2000,-44.9342,546.053
212.1000,-44.4979,547.978
212.0000,-44.1509,549.928
211.9000,-43.3715,551.918
211.8000,-42.2344,553.946
211.7000,-41.5079,555.995
211.6000,-40.9698,558.068
211.5000,-40.6563,560.16
211.4000,-40.4826,562.273
211.3000,-40.213,564.42
211.2000,-40.1434,566.596
211.1000,-39.5584,568.817
211.0000,-38.583,571.078
210.9000,-38.2312,573.349
210.8000,-38.0591,575.645
210.7000,-37.317,577.989
210.6000,-36.733,580.363
210.5000,-36.4085,582.768
210.4000,-36.6003,585.203
210.3000,-36.9597,587.674
210.2000,-37.6939,590.175
210.1000,-38.1226,592.721
210.0000,-37.2954,595.337
209.9000,-36.5303,598
209.8000,-35.8007,600.71
209.7000,-35.1499,603.448
209.6000,-34.4518,606.232
209.5000,-33.5468,609.069
209.4000,-33.6445,611.922
209.3000,-34.4486,614.785
209.2000,-34.5184,617.705
209.1000,-34.1577,620.689
209.0000,-33.4719,623.74
208.9000,-33.1482,626.845
208.8000,-32.868,629.993
208.7000,-32.3425,633.185
208.6000,-31.2096,636.438
208.5000,-29.8585,639.746
208.4000,-29.3671,643.076
208.3000,-29.7758,646.441
208.2000,-29.2728,649.878
208.1000,-29.0163,653.353
208.0000,-28.7377,656.889
207.9000,-28.3936,660.473
207.8000,-27.9812,664.108
207.7000,-25.6185,667.86
207.6000,-23.4066,671.667
207.5000,-21.2168,675.529
207.4000,-20.6222,679.38
207.3000,-20.0761,683.257
207.2000,-17.8595,687.217
207.1000,-16.7758,691.196
207.0000,-15.3015,695.238
206.9000,-14.3502,699.307
206.8000,-13.912,703.41
206.7000,-11.5612,707.609
206.6000,-9.6125,711.828
206.5000,-7.43512,716.097
206.4000,-5.65302,720.406
206.3000,-4.49998,724.738
206.2000,-4.52988,729.07
206.1000,-4.93541,733.402
206.0000,-5.96009,737.736
205.9000,-6.94076,742.089
205.8000,-7.00135,746.48
205.7000,-7.64743,750.854
205.6000,-8.601,755.228
205.5000,-10.8202,759.563
205.4000,-9.00698,764.005
205.3000,-7.79242,768.421
205.2000,-3.80125,772.911
205.1000,0.311423,777.356
205.0000,3.99374,781.767
204.9000,4.3294,786.047
204.8000,6.5253,790.335
204.7000,7.4102,794.538
204.6000,7.48933,798.674
204.5000,9.523,802.818
204.4000,11.8022,806.948
204.3000,13.6315,810.976
204.2000,13.8488,814.892
204.1000,14.5883,818.782
204.0000,20.1282,822.741
203.9000,23.8323,826.596
203.8000,29.4819,830.434
203.7000,32.5788,834.096
203.6000,34.6903,837.667
203.5000,24.4871,840.809
203.4000,12.5613,843.839
203.3000,3.31478,846.851
203.2000,1.30077,849.984
203.1000,-2.99546,852.987
203.0000,-2.13901,856.066
202.9000,1.76718,859.164
202.8000,4.34461,862.138
202.7000,12.561,862.54
202.6000,17.7761,841.171
202.5000,22.6781,828.656
202.4000,25.1184,832.845
202.3000,21.8683,838.355
202.2000,22.8104,844.035
202.1000,24.3068,849.761
202.0000,24.9519,855.41
201.9000,31.9674,861.205
201.8000,40.6844,866.964
201.7000,47.7364,872.556
201.6000,52.487,878.054
201.5000,52.3848,883.404
201.4000,56.1601,888.815
201.3000,55.9756,894.036
201.2000,48.9104,899
201.1000,37.0728,903.672
201.0000,30.6469,916.755
200.9000,29.1321,949.252
200.8000,25.7893,960.292
200.7000,20.6148,962.353
200.6000,14.6555,963.77
200.5000,11.8904,965.094
200.4000,10.3424,956.893
200.3000,5.94243,939.512
200.2000,3.65494,941.784
200.1000,2.73208,946.061
200.0000,-4.22233,950.171
199.9000,-8.35043,954.184
199.8000,-10.2654,958.177
199.7000,-9.99425,962.115
199.6000,-15.2004,965.772
199.5000,-9.14034,969.765
199.4000,-6.01705,973.642
199.3000,-2.41655,977.439
199.2000,1.51583,981.182
199.1000,11.1568,985.112
199.0000,18.051,988.834
198.9000,23.2689,992.418
198.8000,18.584,996.024
198.7000,13.3796,1017.49
198.6000,13.2478,1030.59
198.5000,11.0544,1031.14
198.4000,14.4225,1031.25
198.3000,22.7959,1031.51
198.2000,28.9275,1031.7
198.1000,29.2108,1031.7
198.0000,27.2622,1031.64
197.9000,31.0645,1031.76
197.8000,28.7632,1031.68
197.7000,25.4837,1031.59
197.6000,21.5584,1031.47
197.5000,11.0218,1031.16
197.4000,-2.2168,1030.76
197.3000,-10.0383,1030.51
197.2000,-15.0963,1030.35
197.1000,-16.3281,1030.31
197.0000,-18.1651,1030.25
196.9000,-21.0468,1030.16
196.8000,-16.4049,1030.31
196.7000,-15.5431,1030.33
196.6000,-16.8229,1030.3
196.5000,-17.4535,1030.28
196.4000,-18.2113,1030.25
196.3000,-14.824,1030.36
196.2000,-14.7305,1030.36
196.1000,-16.6272,1030.3
196.0000,-16.6058,1030.3
195.9000,-13.6154,1030.39
195.8000,-7.77042,1030.57
195.7000,0.248483,1030.82
195.6000,7.29577,1031.04
195.5000,13.8073,1031.25
195.4000,18.0616,1031.38
195.3000,24.0291,1031.56
195.2000,24.2626,1031.57
195.1000,21.1164,1031.47
195.0000,20.1694,1031.44
194.9000,16.7051,1031.33
194.8000,14.0962,1031.25
194.7000,13.3174,1031.22
194.6000,9.02072,1031.09
194.5000,13.1249,1031.22
194.4000,14.4632,1031.26
194.3000,8.47078,1031.08
194.2000,-1.70541,1030.76
194.1000,-9.18427,1030.52
194.0000,-13.4868,1030.39
193.9000,-18.1149,1030.25
193.8000,-21.775,1030.12
193.7000,-22.8035,1030.09
193.6000,-21.1237,1030.14
193.5000,-22.6651,1030.08
193.4000,-23.7058,1030.05
193.3000,-22.3042,1030.09
193.2000,-21.3212,1030.1
193.1000,-20.5902,1030.11
193.0000,-19.1981,1030.08
192.9000,-11.028,1030.27
192.8000,-8.00152,1030.28
192.7000,-0.335144,1030.41
192.6000,1.51535,1028.32
192.5000,8.00576,1026.42
192.4000,14.3316,1026.62
192.3000,14.3729,1026.63
192.2000,18.156,1026.74
192.1000,26.4188,1027
192.0000,27.2344,1027.02
191.9000,21.0611,1026.84
191.8000,18.9933,1026.78
191.7000,14.5399,1026.65
191.6000,7.22531,1026.42
191.5000,5.55086,1026.38
191.4000,-4.59944,1026.09
191.3000,-14.8172,1025.83
191.2000,-18.5394,1025.78
191.1000,-16.9829,1025.94
191.0000,-16.2813,1026.09
190.9000,-7.3574,1030.25
190.8000,-4.37324,1030.64
190.7000,-3.22241,1030.67
190.6000,2.06693,1030.83
190.5000,2.8315,1030.85
190.4000,2.32407,1030.84
190.3000,-0.11319,1030.76
190.2000,6.76311,1030.98
190.1000,15.7915,1031.25
190.0000,20.7349,1031.4

##### Extended Information
[Comments]
Sample name,DL121 70C Dark
Comment
User,JM
Division
Company,UT Southwestern Medical Center at Dallas

[Detailed Information]
Creation date,5/1/2023 3:22 PM

Data array type,Linear data array * 2
Horizontal axis,Wavelength [nm]
Vertical axis(1),CD [mdeg]
Vertical axis(2),HT [V]
Start,250 nm
End,190 nm
Data interval,0.1 nm
Data points,601     

[Measurement Information]
Instrument name,Jasco CD
Model name,J-815
Serial No.,B064061168

Accessory,CDF-426S
Accessory S/N,A00861183
  Temperature,69.98 C
  Control sonsor,Holder
  Monitor sensor,Holder
  Start Mode,Keep target temperature +/-0.10 deg C while 5 seconds
  Cell length,10 mm

Measurement date,5/1/2023 3:22 PM

Photometric mode,CD, HT
Measure range,250 - 190 nm
Data pitch,0.1 nm
Sensitivity,Standard
D.I.T.,1 sec
Bandwidth,1.00 nm
Start mode,Immediately
Scanning speed,100 nm/min
Baseline correction,None
Shutter control,Manual
CD detector,PMT
PMT voltage,Auto
No. of cycle,3/3

Concentration,0.7 (w/v)%
Solvent,50mM nap04 ph 6.5 100mM NaF

