TITLE,DL116_Dark
DATA TYPE,
ORIGIN,JASCO
OWNER,
DATE,23/11/16
TIME,09:00:10
SPECTROMETER/DATA SYSTEM,
LOCALE,1033
RESOLUTION,
DELTAX,-0.1
XUNITS,NANOMETERS
YUNITS,CD [mdeg]
Y2UNITS,HT [V]
FIRSTX,  250.0000
LASTX,  190.0000
NPOINTS,     601
FIRSTY,    -0.98468
MAXY,    54.68342
MINY,   -76.89715
XYDATA
250.0000,-0.984677,290.377
249.9000,-0.977078,290.429
249.8000,-0.88728,290.482
249.7000,-0.845966,290.553
249.6000,-0.830624,290.608
249.5000,-0.774319,290.648
249.4000,-0.76517,290.704
249.3000,-0.793991,290.754
249.2000,-0.788141,290.806
249.1000,-0.823401,290.86
249.0000,-0.833667,290.911
248.9000,-0.950745,290.95
248.8000,-1.02614,290.994
248.7000,-1.08328,291.064
248.6000,-1.07556,291.121
248.5000,-0.993881,291.177
248.4000,-0.989877,291.243
248.3000,-0.928268,291.31
248.2000,-0.936398,291.379
248.1000,-0.972461,291.445
248.0000,-0.984579,291.511
247.9000,-1.00377,291.575
247.8000,-1.06619,291.634
247.7000,-1.18042,291.693
247.6000,-1.29591,291.75
247.5000,-1.30752,291.817
247.4000,-1.3721,291.882
247.3000,-1.37263,291.949
247.2000,-1.43762,292.025
247.1000,-1.43841,292.1
247.0000,-1.47244,292.184
246.9000,-1.50551,292.273
246.8000,-1.47735,292.366
246.7000,-1.50267,292.452
246.6000,-1.56408,292.531
246.5000,-1.63948,292.625
246.4000,-1.72608,292.712
246.3000,-1.82109,292.798
246.2000,-1.89109,292.884
246.1000,-1.9488,292.98
246.0000,-2.03915,293.075
245.9000,-2.08049,293.165
245.8000,-2.09618,293.268
245.7000,-2.06086,293.368
245.6000,-2.04665,293.472
245.5000,-2.01233,293.584
245.4000,-2.06701,293.695
245.3000,-2.13996,293.801
245.2000,-2.10001,293.917
245.1000,-2.2298,294.039
245.0000,-2.33102,294.159
244.9000,-2.42966,294.266
244.8000,-2.53272,294.382
244.7000,-2.59133,294.501
244.6000,-2.65217,294.624
244.5000,-2.60049,294.752
244.4000,-2.64803,294.868
244.3000,-2.63181,294.989
244.2000,-2.70963,295.117
244.1000,-2.82636,295.254
244.0000,-2.94397,295.402
243.9000,-3.04554,295.543
243.8000,-3.16632,295.676
243.7000,-3.26711,295.814
243.6000,-3.37085,295.964
243.5000,-3.40332,296.116
243.4000,-3.42614,296.268
243.3000,-3.33734,296.427
243.2000,-3.33422,296.583
243.1000,-3.36577,296.736
243.0000,-3.4412,296.904
242.9000,-3.53916,297.077
242.8000,-3.64026,297.244
242.7000,-3.75168,297.413
242.6000,-3.84091,297.586
242.5000,-4.12164,297.754
242.4000,-4.41349,297.934
242.3000,-4.55851,298.125
242.2000,-4.66086,298.316
242.1000,-4.64484,298.514
242.0000,-4.73943,298.712
241.9000,-4.87657,298.915
241.8000,-4.98049,299.125
241.7000,-5.00387,299.349
241.6000,-4.921,299.571
241.5000,-5.03855,299.79
241.4000,-5.29168,300.004
241.3000,-5.53905,300.228
241.2000,-5.69222,300.461
241.1000,-5.79945,300.698
241.0000,-5.93002,300.94
240.9000,-6.0924,301.184
240.8000,-6.27017,301.43
240.7000,-6.36662,301.686
240.6000,-6.42806,301.946
240.5000,-6.45226,302.206
240.4000,-6.66194,302.469
240.3000,-6.88209,302.739
240.2000,-7.05129,303.019
240.1000,-7.115,303.311
240.0000,-7.2328,303.617
239.9000,-7.35446,303.924
239.8000,-7.41291,304.24
239.7000,-7.51569,304.568
239.6000,-7.55083,304.898
239.5000,-7.57249,305.244
239.4000,-7.6091,305.599
239.3000,-7.72865,305.949
239.2000,-7.81844,306.305
239.1000,-7.98413,306.662
239.0000,-8.08883,307.03
238.9000,-8.30069,307.406
238.8000,-8.57538,307.797
238.7000,-8.78258,308.19
238.6000,-8.87696,308.578
238.5000,-8.96534,308.98
238.4000,-9.20339,309.382
238.3000,-9.46342,309.791
238.2000,-9.72673,310.22
238.1000,-9.84973,310.651
238.0000,-9.92942,311.08
237.9000,-10.0523,311.518
237.8000,-10.3049,311.963
237.7000,-10.6205,312.413
237.6000,-10.9044,312.883
237.5000,-11.1894,313.353
237.4000,-11.4706,313.829
237.3000,-11.7756,314.325
237.2000,-12.0968,314.839
237.1000,-12.3499,315.362
237.0000,-12.5216,315.902
236.9000,-12.7188,316.454
236.8000,-12.914,317.011
236.7000,-12.928,317.592
236.6000,-12.9385,318.179
236.5000,-13.0861,318.765
236.4000,-13.2921,319.352
236.3000,-13.6524,319.949
236.2000,-13.9481,320.564
236.1000,-14.115,321.201
236.0000,-14.3179,321.858
235.9000,-14.6313,322.518
235.8000,-14.9836,323.186
235.7000,-15.2015,323.868
235.6000,-15.3812,324.558
235.5000,-15.6734,325.267
235.4000,-15.8538,326.002
235.3000,-16.1452,326.732
235.2000,-16.4627,327.462
235.1000,-16.8272,328.199
235.0000,-17.1939,328.945
234.9000,-17.535,329.709
234.8000,-17.8205,330.502
234.7000,-17.9702,331.313
234.6000,-18.1107,332.122
234.5000,-18.3995,332.949
234.4000,-18.6753,333.789
234.3000,-18.9878,334.642
234.2000,-19.3941,335.516
234.1000,-19.8276,336.406
234.0000,-20.2861,337.293
233.9000,-20.704,338.196
233.8000,-21.1295,339.107
233.7000,-21.3875,340.015
233.6000,-21.756,340.951
233.5000,-22.0961,341.905
233.4000,-22.239,342.862
233.3000,-22.4524,343.818
233.2000,-22.6838,344.793
233.1000,-22.9498,345.767
233.0000,-23.3495,346.751
232.9000,-23.7196,347.764
232.8000,-23.9086,348.786
232.7000,-24.1739,349.806
232.6000,-24.4469,350.846
232.5000,-24.7536,351.895
232.4000,-25.1098,352.938
232.3000,-25.4618,354.007
232.2000,-25.788,355.078
232.1000,-26.032,356.15
232.0000,-26.3626,357.232
231.9000,-26.6008,358.34
231.8000,-26.9684,359.428
231.7000,-27.4022,360.525
231.6000,-27.6625,361.655
231.5000,-27.9358,362.791
231.4000,-28.2106,363.921
231.3000,-28.5413,365.061
231.2000,-28.9985,366.204
231.1000,-29.3387,367.325
231.0000,-29.8795,368.451
230.9000,-30.2278,369.598
230.8000,-30.6271,370.732
230.7000,-30.9264,371.848
230.6000,-31.4803,372.967
230.5000,-32.3248,374.087
230.4000,-32.9758,375.192
230.3000,-33.8547,376.305
230.2000,-34.3898,377.418
230.1000,-34.8258,378.538
230.0000,-35.3819,379.649
229.9000,-36.0629,380.763
229.8000,-36.7031,381.874
229.7000,-36.916,382.993
229.6000,-36.9597,384.145
229.5000,-37.05,385.277
229.4000,-37.1024,386.419
229.3000,-37.311,387.559
229.2000,-37.5259,388.7
229.1000,-37.83,389.859
229.0000,-38.1236,391.025
228.9000,-38.3119,392.189
228.8000,-38.6312,393.333
228.7000,-39.1671,394.478
228.6000,-39.7574,395.618
228.5000,-40.389,396.743
228.4000,-41.1004,397.885
228.3000,-41.7558,398.996
228.2000,-42.4938,400.078
228.1000,-42.8627,401.182
228.0000,-43.2708,402.29
227.9000,-43.4957,403.372
227.8000,-43.8885,404.445
227.7000,-44.4766,405.53
227.6000,-44.9189,406.591
227.5000,-45.467,407.639
227.4000,-45.7072,408.702
227.3000,-46.271,409.761
227.2000,-46.8948,410.798
227.1000,-47.3715,411.857
227.0000,-47.7678,412.917
226.9000,-48.2505,413.956
226.8000,-48.8618,415.013
226.7000,-49.3569,416.07
226.6000,-49.4714,417.142
226.5000,-49.7697,418.201
226.4000,-50.285,419.25
226.3000,-50.7039,420.288
226.2000,-51.2965,421.329
226.1000,-51.8689,422.374
226.0000,-52.3587,423.402
225.9000,-52.4576,424.445
225.8000,-52.8868,425.468
225.7000,-53.2161,426.487
225.6000,-53.3329,427.524
225.5000,-53.8539,428.543
225.4000,-54.3416,429.562
225.3000,-54.7281,430.586
225.2000,-55.2828,431.61
225.1000,-55.7839,432.62
225.0000,-56.222,433.628
224.9000,-56.6278,434.651
224.8000,-57.2298,435.642
224.7000,-57.9584,436.628
224.6000,-58.4595,437.636
224.5000,-58.6963,438.649
224.4000,-58.6398,439.664
224.3000,-59.0906,440.672
224.2000,-59.5322,441.693
224.1000,-59.917,442.688
224.0000,-60.5059,443.686
223.9000,-60.2431,444.73
223.8000,-60.2077,445.744
223.7000,-60.3878,446.757
223.6000,-60.5573,447.785
223.5000,-60.1881,448.808
223.4000,-59.6601,449.835
223.3000,-59.5028,450.863
223.2000,-59.3156,451.892
223.1000,-59.9269,452.883
223.0000,-60.6047,453.896
222.9000,-60.9321,454.918
222.8000,-61.269,455.902
222.7000,-61.2735,456.915
222.6000,-61.4008,457.945
222.5000,-61.8173,458.952
222.4000,-62.3329,459.988
222.3000,-62.376,461.042
222.2000,-62.206,462.082
222.1000,-62.5816,463.098
222.0000,-62.75,464.123
221.9000,-63.2281,465.136
221.8000,-63.5924,466.14
221.7000,-64.2554,467.151
221.6000,-64.7483,468.157
221.5000,-65.102,469.156
221.4000,-65.4365,470.174
221.3000,-65.7649,471.197
221.2000,-65.9669,472.243
221.1000,-66.0562,473.308
221.0000,-66.6316,474.34
220.9000,-67.244,475.374
220.8000,-67.172,476.44
220.7000,-67.0335,477.496
220.6000,-66.9702,478.552
220.5000,-66.3099,479.633
220.4000,-66.0421,480.686
220.3000,-66.6415,481.7
220.2000,-67.13,482.756
220.1000,-66.9719,483.818
220.0000,-66.7593,484.879
219.9000,-66.4255,485.966
219.8000,-67.1525,487.001
219.7000,-68.1639,488.021
219.6000,-68.1757,489.092
219.5000,-68.0215,490.191
219.4000,-67.942,491.272
219.3000,-67.0479,492.376
219.2000,-66.9329,493.478
219.1000,-67.5453,494.524
219.0000,-67.891,495.612
218.9000,-67.6244,496.735
218.8000,-67.8386,497.83
218.7000,-68.1162,498.913
218.6000,-66.9424,500.053
218.5000,-67.3846,501.137
218.4000,-67.795,502.224
218.3000,-67.7555,503.329
218.2000,-67.4354,504.465
218.1000,-67.3838,505.585
218.0000,-67.3866,506.714
217.9000,-67.3718,507.861
217.8000,-68.3549,508.964
217.7000,-69.0265,510.106
217.6000,-69.7741,511.263
217.5000,-70.2455,512.449
217.4000,-70.3535,513.639
217.3000,-70.2079,514.84
217.2000,-69.4768,516.078
217.1000,-69.405,517.299
217.0000,-69.7903,518.519
216.9000,-70.1293,519.75
216.8000,-69.1447,521.023
216.7000,-68.0757,522.293
216.6000,-67.8851,523.58
216.5000,-67.2353,524.894
216.4000,-67.4297,526.182
216.3000,-67.2149,527.508
216.2000,-66.9113,528.868
216.1000,-66.1831,530.245
216.0000,-65.8998,531.62
215.9000,-66.3465,533.012
215.8000,-65.6618,534.448
215.7000,-66.0037,535.88
215.6000,-66.486,537.336
215.5000,-66.8129,538.823
215.4000,-67.1131,540.33
215.3000,-66.425,541.884
215.2000,-66.1178,543.458
215.1000,-65.9634,545.057
215.0000,-66.1935,546.657
214.9000,-66.3095,548.296
214.8000,-66.3833,549.954
214.7000,-65.8262,551.654
214.6000,-65.3763,553.357
214.5000,-65.3792,555.066
214.4000,-65.8877,556.788
214.3000,-66.3729,558.529
214.2000,-66.0948,560.32
214.1000,-66.4869,562.118
214.0000,-66.3098,563.966
213.9000,-65.7785,565.841
213.8000,-66.3813,567.713
213.7000,-67.0335,569.63
213.6000,-67.0866,571.589
213.5000,-66.5643,573.629
213.4000,-65.8773,575.705
213.3000,-65.7278,577.801
213.2000,-63.9547,579.979
213.1000,-64.5466,582.11
213.0000,-64.5215,584.293
212.9000,-65.2291,586.486
212.8000,-64.1281,588.766
212.7000,-63.7095,591.065
212.6000,-63.618,593.384
212.5000,-61.9442,595.798
212.4000,-60.836,598.178
212.3000,-59.7587,600.596
212.2000,-58.1624,603.098
212.1000,-55.7278,605.652
212.0000,-55.4851,608.196
211.9000,-57.2001,610.746
211.8000,-59.099,613.282
211.7000,-61.1039,615.838
211.6000,-64.268,618.439
211.5000,-66.4736,621.104
211.4000,-68.7368,623.786
211.3000,-70.9819,626.537
211.2000,-71.2398,629.379
211.1000,-71.6242,632.223
211.0000,-70.1089,635.197
210.9000,-68.0588,638.232
210.8000,-65.3256,641.339
210.7000,-61.9107,644.509
210.6000,-59.5766,647.714
210.5000,-58.5872,650.908
210.4000,-55.9771,654.209
210.3000,-53.5009,657.56
210.2000,-53.0387,660.863
210.1000,-53.9967,664.184
210.0000,-58.1689,667.458
209.9000,-62.816,670.774
209.8000,-64.8871,674.237
209.7000,-65.006,677.828
209.6000,-64.2978,681.481
209.5000,-66.6402,685.086
209.4000,-69.96,688.766
209.3000,-70.0885,692.616
209.2000,-67.4334,696.618
209.1000,-63.2848,700.773
209.0000,-61.1746,704.889
208.9000,-61.2833,709.018
208.8000,-61.8591,713.237
208.7000,-62.2179,717.535
208.6000,-59.4446,721.99
208.5000,-57.6245,726.483
208.4000,-58.3812,730.953
208.3000,-56.5309,735.534
208.2000,-56.8255,740.14
208.1000,-54.6525,744.87
208.0000,-54.407,749.531
207.9000,-58.3255,754.119
207.8000,-60.0619,758.815
207.7000,-62.6656,763.526
207.6000,-59.6457,768.434
207.5000,-62.545,773.182
207.4000,-65.1063,777.909
207.3000,-63.0586,782.828
207.2000,-59.5907,787.807
207.1000,-57.0777,792.733
207.0000,-58.494,797.528
206.9000,-64.6552,802.194
206.8000,-66.6379,806.975
206.7000,-67.1028,811.766
206.6000,-58.7571,816.854
206.5000,-53.6618,821.776
206.4000,-52.6133,826.538
206.3000,-53.1017,831.267
206.2000,-51.9588,835.919
206.1000,-38.0547,840.914
206.0000,-28.3059,845.658
205.9000,-22.4568,850.25
205.8000,-9.36251,854.941
205.7000,-5.76228,859.235
205.6000,0.6259,863.522
205.5000,-7.21837,867.193
205.4000,-14.5751,870.814
205.3000,-14.0822,874.58
205.2000,-13.6659,878.22
205.1000,-19.0542,881.47
205.0000,-27.2193,884.531
204.9000,-39.0621,887.376
204.8000,-44.0165,890.275
204.7000,-31.0463,893.525
204.6000,-10.3708,896.934
204.5000,-2.3445,899.76
204.4000,5.54981,902.457
204.3000,14.337,905.036
204.2000,23.9953,907.501
204.1000,16.6119,909.292
204.0000,17.6871,911.215
203.9000,23.7592,896.332
203.8000,21.7106,873.188
203.7000,32.9644,882.608
203.6000,38.2178,892.036
203.5000,36.6245,901.091
203.4000,37.4556,909.966
203.3000,43.8957,918.823
203.2000,39.3222,927.068
203.1000,13.4488,937.038
203.0000,4.27695,984.609
202.9000,7.17498,986.665
202.8000,4.65973,986.287
202.7000,-1.96583,985.783
202.6000,-10.7989,985.104
202.5000,-9.9577,984.701
202.4000,-5.7858,984.372
202.3000,15.1007,984.724
202.2000,22.9401,984.816
202.1000,14.9339,984.432
202.0000,-1.71513,983.667
201.9000,-10.8814,983.281
201.8000,-13.5767,982.96
201.7000,-27.4687,982.379
201.6000,-30.1416,982.123
201.5000,-33.034,981.996
201.4000,-46.9222,981.431
201.3000,-54.059,981.121
201.2000,-34.6598,981.817
201.1000,-14.7023,982.288
201.0000,-12.9029,982.38
200.9000,-16.7581,982.486
200.8000,-15.1945,982.486
200.7000,-17.868,982.448
200.6000,1.98282,982.974
200.5000,11.6796,983.235
200.4000,-5.93605,982.542
200.3000,-0.454605,982.647
200.2000,0.535446,982.65
200.1000,6.49464,982.828
200.0000,10.2847,982.842
199.9000,11.1555,982.764
199.8000,9.08216,982.665
199.7000,18.1852,982.811
199.6000,39.9487,983.415
199.5000,49.6024,983.793
199.4000,51.5486,983.569
199.3000,43.1381,983.064
199.2000,40.5303,982.676
199.1000,35.4486,982.453
199.0000,25.7017,981.808
198.9000,8.87056,981.256
198.8000,-5.33424,980.593
198.7000,-29.4715,979.763
198.6000,-55.3141,978.58
198.5000,-52.7753,978.52
198.4000,-47.4635,978.412
198.3000,-33.8136,978.815
198.2000,-14.8017,979.247
198.1000,8.12314,979.719
198.0000,6.18715,979.27
197.9000,10.8315,979.044
197.8000,18.3721,971.562
197.7000,19.4552,959.525
197.6000,18.9762,964.418
197.5000,0.239239,969.214
197.4000,-12.4386,974.134
197.3000,-6.46566,979.35
197.2000,9.49682,984.852
197.1000,24.7503,990.032
197.0000,29.0098,994.609
196.9000,23.0966,1019.26
196.8000,31.4266,1019.01
196.7000,47.3064,1017.76
196.6000,54.6834,1015.94
196.5000,39.4386,1013.32
196.4000,9.09059,1010.36
196.3000,-24.5649,1007.24
196.2000,-38.9514,1004.87
196.1000,-46.2927,1002.8
196.0000,-55.1265,1000.63
195.9000,-58.0133,998.663
195.8000,-54.2399,996.965
195.7000,-63.0642,995.045
195.6000,-64.1232,993.32
195.5000,-57.4612,991.89
195.4000,-46.6872,990.466
195.3000,-50.8533,988.603
195.2000,-33.0005,987.578
195.1000,-26.8498,986.176
195.0000,-26.2639,984.523
194.9000,-20.0614,983.09
194.8000,-10.8682,981.764
194.7000,4.87794,980.537
194.6000,8.8827,979.071
194.5000,6.01704,977.592
194.4000,6.48882,976.224
194.3000,2.45022,974.796
194.2000,-3.57621,973.075
194.1000,-11.3167,971.627
194.0000,-24.4924,965.904
193.9000,-37.4017,957.192
193.8000,-31.3521,960.85
193.7000,-13.2385,965.144
193.6000,-19.7696,968.302
193.5000,-40.5146,971.018
193.4000,-57.6451,974.015
193.3000,-64.4011,977.222
193.2000,-59.0306,980.751
193.1000,-41.8173,996.938
193.0000,-45.3021,995.987
192.9000,-48.1998,994.323
192.8000,-43.7977,993.019
192.7000,-11.0083,992.701
192.6000,10.479,992.052
192.5000,20.6244,991.016
192.4000,41.5291,990.336
192.3000,46.8664,989.065
192.2000,42.6463,987.533
192.1000,39.9482,985.982
192.0000,50.5698,984.953
191.9000,45.6948,983.392
191.8000,28.6194,981.484
191.7000,24.8381,980.127
191.6000,7.71601,978.405
191.5000,-3.06299,976.901
191.4000,13.8198,976.374
191.3000,9.78778,975.337
191.2000,11.8562,974.508
191.1000,5.74443,973.449
191.0000,7.24786,972.572
190.9000,2.66434,971.512
190.8000,11.2879,971.019
190.7000,5.10995,970.086
190.6000,-7.59793,969.042
190.5000,-22.4564,967.815
190.4000,-36.5132,966.663
190.3000,-57.4227,965.406
190.2000,-72.9085,964.161
190.1000,-73.7838,963.562
190.0000,-76.8971,962.86

##### Extended Information
[Comments]
Sample name,DL116_Dark
Comment
User
Division
Company,UT Southwestern Medical Center at Dallas

[Detailed Information]
Creation date,11/16/2023 10:00 AM

Data array type,Linear data array * 2
Horizontal axis,Wavelength [nm]
Vertical axis(1),CD [mdeg]
Vertical axis(2),HT [V]
Start,250 nm
End,190 nm
Data interval,0.1 nm
Data points,601     

[Measurement Information]
Instrument name,Jasco CD
Model name,J-815
Serial No.,B064061168

Accessory,Standard
Accessory S/N,B064061168
  Cell length,1 mm

Measurement date,11/16/2023 10:00 AM

Photometric mode,CD, HT
Measure range,250 - 190 nm
Data pitch,0.1 nm
Sensitivity,Standard
D.I.T.,1 sec
Bandwidth,1.00 nm
Start mode,Immediately
Scanning speed,50 nm/min
Baseline correction,None
Shutter control,Manual
CD detector,PMT
PMT voltage,Auto
No. of cycle,1/3

Concentration,0.2 (w/v)%
Solvent,10mM HEPES 300mM NaSO4 10% glycerol + 50mM IV 

