TITLE,DL116_Dark
DATA TYPE,
ORIGIN,JASCO
OWNER,
DATE,23/11/16
TIME,09:01:30
SPECTROMETER/DATA SYSTEM,
LOCALE,1033
RESOLUTION,
DELTAX,-0.1
XUNITS,NANOMETERS
YUNITS,CD [mdeg]
Y2UNITS,HT [V]
FIRSTX,  250.0000
LASTX,  190.0000
NPOINTS,     601
FIRSTY,    -0.85678
MAXY,    76.87530
MINY,   -75.06596
XYDATA
250.0000,-0.856778,290.292
249.9000,-0.842239,290.338
249.8000,-0.857639,290.382
249.7000,-0.950763,290.445
249.6000,-0.919977,290.49
249.5000,-0.916916,290.538
249.4000,-1.00312,290.598
249.3000,-1.15785,290.642
249.2000,-1.15752,290.697
249.1000,-1.23872,290.753
249.0000,-1.24555,290.801
248.9000,-1.15157,290.838
248.8000,-1.12453,290.892
248.7000,-1.21598,290.95
248.6000,-1.23351,290.997
248.5000,-1.17771,291.056
248.4000,-1.1277,291.12
248.3000,-1.14376,291.172
248.2000,-1.17126,291.244
248.1000,-1.30152,291.323
248.0000,-1.48061,291.384
247.9000,-1.51595,291.45
247.8000,-1.47664,291.517
247.7000,-1.37329,291.585
247.6000,-1.28525,291.658
247.5000,-1.24777,291.732
247.4000,-1.20488,291.797
247.3000,-1.15382,291.856
247.2000,-1.10127,291.922
247.1000,-1.12034,291.98
247.0000,-1.19387,292.044
246.9000,-1.30892,292.122
246.8000,-1.47035,292.196
246.7000,-1.65998,292.275
246.6000,-1.79151,292.357
246.5000,-2.01136,292.45
246.4000,-2.14386,292.543
246.3000,-2.14746,292.644
246.2000,-2.14598,292.745
246.1000,-2.14604,292.844
246.0000,-2.17038,292.951
245.9000,-2.14485,293.057
245.8000,-2.19573,293.159
245.7000,-2.20576,293.271
245.6000,-2.17343,293.386
245.5000,-2.2674,293.485
245.4000,-2.40073,293.588
245.3000,-2.51716,293.69
245.2000,-2.62018,293.794
245.1000,-2.75991,293.904
245.0000,-2.78109,294.02
244.9000,-2.83697,294.123
244.8000,-2.8916,294.228
244.7000,-2.90317,294.347
244.6000,-2.86648,294.484
244.5000,-2.86718,294.618
244.4000,-2.9091,294.751
244.3000,-2.8374,294.883
244.2000,-2.78592,295.02
244.1000,-2.86526,295.161
244.0000,-2.91402,295.298
243.9000,-3.03682,295.448
243.8000,-3.15686,295.592
243.7000,-3.33516,295.72
243.6000,-3.3509,295.861
243.5000,-3.40705,296.007
243.4000,-3.44752,296.156
243.3000,-3.43162,296.322
243.2000,-3.39809,296.493
243.1000,-3.37607,296.644
243.0000,-3.35275,296.811
242.9000,-3.27396,297
242.8000,-3.2611,297.182
242.7000,-3.38003,297.364
242.6000,-3.56325,297.552
242.5000,-3.80214,297.727
242.4000,-3.98454,297.912
242.3000,-4.1387,298.118
242.2000,-4.2368,298.313
242.1000,-4.40638,298.506
242.0000,-4.56992,298.709
241.9000,-4.69151,298.906
241.8000,-4.78302,299.11
241.7000,-4.77457,299.325
241.6000,-4.75319,299.534
241.5000,-4.85258,299.741
241.4000,-4.95396,299.961
241.3000,-4.99822,300.19
241.2000,-5.17847,300.413
241.1000,-5.36681,300.639
241.0000,-5.51553,300.873
240.9000,-5.60914,301.113
240.8000,-5.7388,301.366
240.7000,-5.81068,301.615
240.6000,-5.92094,301.865
240.5000,-6.08235,302.126
240.4000,-6.07477,302.394
240.3000,-6.1485,302.678
240.2000,-6.26798,302.975
240.1000,-6.32767,303.272
240.0000,-6.4863,303.571
239.9000,-6.62107,303.883
239.8000,-6.71043,304.199
239.7000,-6.84493,304.516
239.6000,-7.05043,304.845
239.5000,-7.26272,305.173
239.4000,-7.43424,305.506
239.3000,-7.64391,305.847
239.2000,-7.94811,306.194
239.1000,-8.26335,306.548
239.0000,-8.58676,306.91
238.9000,-8.76956,307.29
238.8000,-8.89213,307.669
238.7000,-9.01414,308.065
238.6000,-9.09482,308.464
238.5000,-9.28531,308.861
238.4000,-9.54478,309.265
238.3000,-9.70533,309.677
238.2000,-9.75814,310.104
238.1000,-9.96378,310.532
238.0000,-10.2415,310.963
237.9000,-10.4731,311.401
237.8000,-10.6232,311.852
237.7000,-10.6643,312.32
237.6000,-10.6309,312.798
237.5000,-10.5908,313.289
237.4000,-10.7613,313.782
237.3000,-10.8987,314.293
237.2000,-11.0209,314.815
237.1000,-11.2302,315.343
237.0000,-11.475,315.879
236.9000,-11.7236,316.421
236.8000,-12.0341,316.97
236.7000,-12.3005,317.538
236.6000,-12.5627,318.108
236.5000,-12.8,318.688
236.4000,-13.1952,319.27
236.3000,-13.5698,319.873
236.2000,-13.8577,320.487
236.1000,-14.1967,321.109
236.0000,-14.536,321.76
235.9000,-14.7887,322.41
235.8000,-15.0508,323.076
235.7000,-15.4201,323.748
235.6000,-15.7854,324.435
235.5000,-16.013,325.135
235.4000,-16.3292,325.861
235.3000,-16.5581,326.606
235.2000,-16.7604,327.341
235.1000,-16.9798,328.087
235.0000,-17.2412,328.851
234.9000,-17.563,329.624
234.8000,-17.7366,330.415
234.7000,-17.8137,331.228
234.6000,-17.9908,332.047
234.5000,-18.2581,332.869
234.4000,-18.659,333.72
234.3000,-18.9964,334.577
234.2000,-19.3296,335.435
234.1000,-19.6316,336.31
234.0000,-19.9341,337.199
233.9000,-20.3715,338.104
233.8000,-20.7831,339.02
233.7000,-21.0807,339.929
233.6000,-21.3729,340.838
233.5000,-21.7767,341.759
233.4000,-22.175,342.7
233.3000,-22.4744,343.663
233.2000,-22.7023,344.645
233.1000,-23.009,345.625
233.0000,-23.2265,346.604
232.9000,-23.5385,347.599
232.8000,-23.8325,348.63
232.7000,-24.1651,349.667
232.6000,-24.4928,350.716
232.5000,-24.819,351.773
232.4000,-25.2639,352.819
232.3000,-25.8736,353.865
232.2000,-26.2967,354.935
232.1000,-26.6678,356.022
232.0000,-27.1539,357.104
231.9000,-27.4713,358.199
231.8000,-27.5235,359.309
231.7000,-27.7688,360.424
231.6000,-28.0795,361.546
231.5000,-27.8889,362.689
231.4000,-27.82,363.84
231.3000,-27.8834,364.971
231.2000,-28.1278,366.103
231.1000,-28.4186,367.236
231.0000,-29.0662,368.357
230.9000,-29.475,369.474
230.8000,-29.8254,370.602
230.7000,-30.4679,371.72
230.6000,-31.1731,372.827
230.5000,-31.9674,373.952
230.4000,-32.4636,375.082
230.3000,-32.5031,376.217
230.2000,-32.6884,377.362
230.1000,-33.0111,378.511
230.0000,-33.4755,379.638
229.9000,-33.9868,380.76
229.8000,-34.7411,381.88
229.7000,-35.5244,382.983
229.6000,-36.2417,384.086
229.5000,-36.9471,385.193
229.4000,-37.6041,386.31
229.3000,-38.3172,387.418
229.2000,-38.9535,388.536
229.1000,-39.4727,389.667
229.0000,-39.8376,390.803
228.9000,-40.248,391.936
228.8000,-40.35,393.093
228.7000,-40.6352,394.254
228.6000,-41.1206,395.387
228.5000,-41.5898,396.518
228.4000,-42.4419,397.638
228.3000,-42.8168,398.756
228.2000,-42.8964,399.881
228.1000,-42.9367,401.014
228.0000,-43.4051,402.117
227.9000,-44.0425,403.19
227.8000,-44.3774,404.273
227.7000,-44.6729,405.375
227.6000,-44.7185,406.471
227.5000,-45.0136,407.54
227.4000,-45.4841,408.598
227.3000,-45.879,409.651
227.2000,-45.9658,410.703
227.1000,-46.018,411.775
227.0000,-46.452,412.853
226.9000,-47.0936,413.894
226.8000,-47.6035,414.932
226.7000,-47.8543,415.994
226.6000,-48.7929,417.039
226.5000,-49.5919,418.086
226.4000,-50.4155,419.126
226.3000,-51.4195,420.159
226.2000,-52.0628,421.186
226.1000,-52.5806,422.214
226.0000,-53.3271,423.239
225.9000,-53.9524,424.26
225.8000,-53.752,425.314
225.7000,-53.5553,426.37
225.6000,-53.4769,427.412
225.5000,-53.3924,428.448
225.4000,-53.661,429.478
225.3000,-54.1049,430.495
225.2000,-54.0422,431.534
225.1000,-54.231,432.544
225.0000,-54.9565,433.533
224.9000,-56.1259,434.511
224.8000,-56.8245,435.512
224.7000,-57.375,436.514
224.6000,-57.8178,437.503
224.5000,-58.2169,438.498
224.4000,-58.4863,439.493
224.3000,-59.0027,440.509
224.2000,-59.1024,441.547
224.1000,-58.9346,442.579
224.0000,-59.1416,443.594
223.9000,-59.4777,444.61
223.8000,-59.7819,445.626
223.7000,-59.7322,446.668
223.6000,-59.7986,447.706
223.5000,-60.0009,448.718
223.4000,-60.0702,449.733
223.3000,-60.4951,450.731
223.2000,-60.6414,451.736
223.1000,-60.5677,452.759
223.0000,-60.486,453.794
222.9000,-60.4679,454.824
222.8000,-60.3805,455.842
222.7000,-60.8183,456.854
222.6000,-61.4266,457.856
222.5000,-62.073,458.868
222.4000,-62.4219,459.895
222.3000,-62.7794,460.899
222.2000,-62.923,461.904
222.1000,-63.0911,462.925
222.0000,-63.6796,463.94
221.9000,-64.0123,464.945
221.8000,-64.0883,465.957
221.7000,-63.4953,466.985
221.6000,-63.0123,468.016
221.5000,-62.9915,469.047
221.4000,-63.0743,470.088
221.3000,-63.2928,471.108
221.2000,-63.6041,472.127
221.1000,-63.4572,473.173
221.0000,-63.3918,474.217
220.9000,-63.5345,475.267
220.8000,-64.4175,476.296
220.7000,-65.2097,477.317
220.6000,-65.5801,478.347
220.5000,-66.2024,479.39
220.4000,-66.6638,480.432
220.3000,-66.881,481.477
220.2000,-67.5602,482.512
220.1000,-67.8096,483.558
220.0000,-67.4373,484.62
219.9000,-66.7896,485.703
219.8000,-66.6387,486.783
219.7000,-66.6778,487.86
219.6000,-66.105,488.953
219.5000,-66.186,490.038
219.4000,-66.1954,491.142
219.3000,-65.8659,492.243
219.2000,-66.0194,493.335
219.1000,-66.5386,494.427
219.0000,-67.2175,495.519
218.9000,-67.4569,496.609
218.8000,-67.9933,497.689
218.7000,-68.0525,498.776
218.6000,-68.0869,499.872
218.5000,-68.369,500.971
218.4000,-68.6874,502.08
218.3000,-68.6086,503.194
218.2000,-68.5658,504.307
218.1000,-69.1641,505.414
218.0000,-69.3408,506.554
217.9000,-69.6796,507.705
217.8000,-70.326,508.834
217.7000,-70.4831,509.98
217.6000,-70.4153,511.149
217.5000,-70.3696,512.326
217.4000,-70.259,513.505
217.3000,-68.7948,514.736
217.2000,-67.9516,515.966
217.1000,-67.9412,517.171
217.0000,-67.0691,518.429
216.9000,-65.7497,519.728
216.8000,-65.5175,521.006
216.7000,-65.4581,522.295
216.6000,-64.4236,523.634
216.5000,-64.2469,524.969
216.4000,-65.0024,526.269
216.3000,-64.5698,527.616
216.2000,-64.5097,528.968
216.1000,-64.655,530.325
216.0000,-64.2993,531.722
215.9000,-64.2512,533.139
215.8000,-64.973,534.535
215.7000,-65.4039,535.974
215.6000,-65.7955,537.445
215.5000,-66.3636,538.926
215.4000,-66.5679,540.453
215.3000,-66.8098,541.999
215.2000,-67.3897,543.544
215.1000,-67.7215,545.108
215.0000,-68.2128,546.695
214.9000,-68.2723,548.306
214.8000,-67.4866,549.964
214.7000,-66.4988,551.662
214.6000,-66.309,553.34
214.5000,-66.8904,555.012
214.4000,-66.6005,556.732
214.3000,-65.2364,558.522
214.2000,-62.9625,560.362
214.1000,-61.7766,562.203
214.0000,-61.44,564.052
213.9000,-61.3576,565.908
213.8000,-60.6493,567.811
213.7000,-59.1676,569.791
213.6000,-58.9945,571.761
213.5000,-59.9412,573.724
213.4000,-61.9212,575.69
213.3000,-64.3459,577.679
213.2000,-64.9813,579.742
213.1000,-65.1928,581.876
213.0000,-66.7239,584.016
212.9000,-68.5017,586.158
212.8000,-69.1218,588.382
212.7000,-69.9731,590.642
212.6000,-70.6287,592.933
212.5000,-69.8555,595.322
212.4000,-69.259,597.75
212.3000,-69.8705,600.139
212.2000,-69.0094,602.609
212.1000,-66.7933,605.186
212.0000,-65.4821,607.779
211.9000,-64.0779,610.411
211.8000,-61.9999,613.117
211.7000,-60.3173,615.808
211.6000,-59.6124,618.511
211.5000,-59.8389,621.235
211.4000,-60.3965,623.986
211.3000,-62.6297,626.74
211.2000,-63.4111,629.549
211.1000,-62.6003,632.449
211.0000,-62.5452,635.367
210.9000,-63.1424,638.314
210.8000,-64.3425,641.307
210.7000,-64.1635,644.398
210.6000,-64.2869,647.546
210.5000,-63.9925,650.744
210.4000,-65.2199,653.935
210.3000,-66.1153,657.217
210.2000,-67.951,660.495
210.1000,-68.1422,663.906
210.0000,-67.7109,667.379
209.9000,-68.1236,670.875
209.8000,-66.1384,674.511
209.7000,-62.8961,678.24
209.6000,-58.8491,682.068
209.5000,-57.4217,685.889
209.4000,-55.2871,689.809
209.3000,-53.508,693.784
209.2000,-54.1858,697.747
209.1000,-51.6614,701.869
209.0000,-51.9804,705.944
208.9000,-53.3006,710.073
208.8000,-54.2455,714.255
208.7000,-55.6646,718.472
208.6000,-56.8828,722.757
208.5000,-60.1321,727.096
208.4000,-60.1667,731.555
208.3000,-61.4215,736.026
208.2000,-63.1412,740.563
208.1000,-60.1561,745.265
208.0000,-61.0524,749.91
207.9000,-62.4061,754.622
207.8000,-62.6929,759.358
207.7000,-65.1521,764.041
207.6000,-63.9398,768.841
207.5000,-65.2495,773.61
207.4000,-64.6845,778.475
207.3000,-73.3135,783.061
207.2000,-75.066,787.866
207.1000,-70.1732,792.858
207.0000,-67.1523,797.787
206.9000,-58.9001,802.859
206.8000,-53.2463,807.857
206.7000,-50.1043,812.74
206.6000,-47.2424,817.571
206.5000,-41.6927,822.429
206.4000,-40.8743,827.067
206.3000,-36.7232,831.763
206.2000,-36.1491,836.266
206.1000,-30.7839,840.856
206.0000,-21.4193,845.485
205.9000,-17.1985,849.897
205.8000,-19.0452,854.006
205.7000,-9.01949,858.351
205.6000,3.26222,862.646
205.5000,3.04611,866.483
205.4000,1.32979,870.138
205.3000,7.61075,873.927
205.2000,9.73284,877.42
205.1000,3.50722,880.553
205.0000,22.5255,884.304
204.9000,24.6479,887.4
204.8000,10.7848,889.981
204.7000,11.9639,892.802
204.6000,18.3465,895.667
204.5000,23.6048,898.374
204.4000,3.19187,900.239
204.3000,-4.20789,902.273
204.2000,-26.8824,903.662
204.1000,-45.8148,905.011
204.0000,-40.1684,857.635
203.9000,-42.8497,848.705
203.8000,-42.0863,858.067
203.7000,-52.0975,867.158
203.6000,-46.6147,876.579
203.5000,-35.289,886.169
203.4000,-36.258,895.088
203.3000,-46.7581,903.521
203.2000,-56.0156,937.31
203.1000,-48.8303,982.581
203.0000,-38.3749,984.352
202.9000,-21.328,985.39
202.8000,-22.8264,985.708
202.7000,-14.542,986.265
202.6000,8.18702,987.322
202.5000,24.1152,988.384
202.4000,41.4027,989.449
202.3000,37.8945,989.921
202.2000,25.3954,990.241
202.1000,1.36698,990.066
202.0000,-2.63008,990.576
201.9000,-15.762,990.729
201.8000,-37.3764,990.81
201.7000,-35.87,991.557
201.6000,-37.095,992.142
201.5000,-36.6232,992.701
201.4000,-27.2617,993.329
201.3000,-16.5652,993.765
201.2000,-24.9616,993.794
201.1000,-33.2496,993.574
201.0000,-39.5934,993.342
200.9000,-44.5225,992.899
200.8000,-35.8142,992.961
200.7000,-33.1124,992.886
200.6000,-20.5913,992.984
200.5000,-34.1048,992.413
200.4000,-24.0822,992.417
200.3000,4.60265,993.103
200.2000,24.9783,993.512
200.1000,28,993.207
200.0000,24.0564,992.634
199.9000,12.475,991.859
199.8000,3.61174,991.294
199.7000,6.77592,990.895
199.6000,19.7417,990.997
199.5000,5.19514,990.024
199.4000,1.73824,989.462
199.3000,-10.1941,988.532
199.2000,-16.3988,987.943
199.1000,-13.7331,987.496
199.0000,-14.0705,986.847
198.9000,-9.08553,986.412
198.8000,-5.34549,985.766
198.7000,-7.73095,984.87
198.6000,-11.9215,984.126
198.5000,3.28432,983.984
198.4000,16.4947,983.727
198.3000,24.6962,983.342
198.2000,35.8055,983.17
198.1000,38.6896,982.724
198.0000,24.446,981.883
197.9000,24.2458,961.884
197.8000,25.1605,960.856
197.7000,29.0847,966.219
197.6000,26.1243,971.834
197.5000,27.8179,977.742
197.4000,23.574,983.333
197.3000,16.5335,988.864
197.2000,15.6339,994.472
197.1000,9.86265,1005.53
197.0000,7.8127,1026.96
196.9000,5.27228,1026.46
196.8000,-10.5712,1024.73
196.7000,-18.7511,1022.99
196.6000,-5.21789,1021.6
196.5000,-1.88187,1019.64
196.4000,-1.02521,1017.51
196.3000,2.61788,1015.22
196.2000,2.63951,1012.92
196.1000,5.7087,1010.79
196.0000,16.4203,1008.87
195.9000,12.9268,1006.46
195.8000,-1.62849,1003.69
195.7000,-11.2529,1001.24
195.6000,-0.463223,999.306
195.5000,7.12531,997.319
195.4000,12.2753,995.603
195.3000,22.9175,994.018
195.2000,39.9943,992.701
195.1000,51.4541,991.176
195.0000,69.0576,990.031
194.9000,76.8753,988.554
194.8000,66.9541,986.558
194.7000,56.117,984.798
194.6000,62.8733,983.363
194.5000,59.6204,981.672
194.4000,50.0648,979.862
194.3000,57.8076,978.609
194.2000,47.6114,976.865
194.1000,39.684,975.306
194.0000,34.3143,973.886
193.9000,32.4269,972.54
193.8000,25.2336,971.172
193.7000,12.5347,969.581
193.6000,6.52531,968.043
193.5000,-5.97509,966.832
193.4000,-0.54928,966.135
193.3000,0.344476,965.157
193.2000,-13.4414,963.895
193.1000,-24.2856,962.813
193.0000,-25.1344,962.145
192.9000,-13.4189,961.944
192.8000,-0.0640106,961.827
192.7000,-5.21064,961.068
192.6000,-11.2261,959.993
192.5000,1.84247,959.955
192.4000,12.1152,959.57
192.3000,24.0015,959.328
192.2000,37.0752,959.072
192.1000,39.0394,958.309
192.0000,42.9325,957.786
191.9000,49.1063,957.56
191.8000,54.4631,957.548
191.7000,56.851,957.248
191.6000,64.7,957.098
191.5000,67.148,956.684
191.4000,62.6433,956.303
191.3000,46.5847,955.572
191.2000,23.4167,954.744
191.1000,-1.11687,953.804
191.0000,-23.9029,952.291
190.9000,-41.5073,951.284
190.8000,-59.8756,950.411
190.7000,-66.3924,949.947
190.6000,-54.6255,949.983
190.5000,-41.7408,950.065
190.4000,-16.6117,950.532
190.3000,9.40157,950.959
190.2000,25.5406,951.211
190.1000,38.9815,951.751
190.0000,38.1425,951.301

##### Extended Information
[Comments]
Sample name,DL116_Dark
Comment
User
Division
Company,UT Southwestern Medical Center at Dallas

[Detailed Information]
Creation date,11/16/2023 10:01 AM

Data array type,Linear data array * 2
Horizontal axis,Wavelength [nm]
Vertical axis(1),CD [mdeg]
Vertical axis(2),HT [V]
Start,250 nm
End,190 nm
Data interval,0.1 nm
Data points,601     

[Measurement Information]
Instrument name,Jasco CD
Model name,J-815
Serial No.,B064061168

Accessory,Standard
Accessory S/N,B064061168
  Cell length,1 mm

Measurement date,11/16/2023 10:01 AM

Photometric mode,CD, HT
Measure range,250 - 190 nm
Data pitch,0.1 nm
Sensitivity,Standard
D.I.T.,1 sec
Bandwidth,1.00 nm
Start mode,Immediately
Scanning speed,50 nm/min
Baseline correction,None
Shutter control,Manual
CD detector,PMT
PMT voltage,Auto
No. of cycle,2/3

Concentration,0.2 (w/v)%
Solvent,10mM HEPES 300mM NaSO4 10% glycerol + 50mM IV 

