TITLE,Dl121-D87A-2 lit
DATA TYPE,
ORIGIN,JASCO
OWNER,
DATE,23/02/09
TIME,13:39:11
SPECTROMETER/DATA SYSTEM,
LOCALE,1033
RESOLUTION,
DELTAX,-0.1
XUNITS,NANOMETERS
YUNITS,CD [mdeg]
Y2UNITS,HT [V]
FIRSTX,  260.0000
LASTX,  190.0000
NPOINTS,     701
FIRSTY,     0.06381
MAXY,    33.50892
MINY,   -64.99892
XYDATA
260.0000,0.0638095,282.716
259.9000,0.060842,282.76
259.8000,0.0621295,282.813
259.7000,0.0728943,282.871
259.6000,0.0912335,282.926
259.5000,0.08521,282.984
259.4000,0.0799503,283.041
259.3000,0.0924295,283.094
259.2000,0.0968637,283.146
259.1000,0.0935773,283.202
259.0000,0.109666,283.254
258.9000,0.111573,283.303
258.8000,0.078721,283.352
258.7000,0.0270114,283.388
258.6000,-0.0058847,283.429
258.5000,-0.0160791,283.476
258.4000,-0.0472452,283.515
258.3000,-0.0498416,283.558
258.2000,-0.0544928,283.604
258.1000,-0.0786472,283.637
258.0000,-0.0933893,283.672
257.9000,-0.11558,283.716
257.8000,-0.12903,283.754
257.7000,-0.168392,283.787
257.6000,-0.208582,283.827
257.5000,-0.229537,283.854
257.4000,-0.237862,283.884
257.3000,-0.256181,283.915
257.2000,-0.275163,283.951
257.1000,-0.247114,283.988
257.0000,-0.179361,284.023
256.9000,-0.151743,284.059
256.8000,-0.136444,284.086
256.7000,-0.126602,284.126
256.6000,-0.116294,284.169
256.5000,-0.111807,284.204
256.4000,-0.0880896,284.243
256.3000,-0.08785,284.268
256.2000,-0.152129,284.298
256.1000,-0.169721,284.338
256.0000,-0.175056,284.377
255.9000,-0.15287,284.416
255.8000,-0.130464,284.445
255.7000,-0.100199,284.487
255.6000,-0.0984988,284.526
255.5000,-0.101015,284.565
255.4000,-0.0762799,284.612
255.3000,-0.0697275,284.65
255.2000,-0.0681967,284.689
255.1000,-0.0750586,284.515
255.0000,-0.0878726,284.299
254.9000,-0.11724,284.104
254.8000,-0.140721,283.881
254.7000,-0.151521,283.703
254.6000,-0.143271,283.479
254.5000,-0.149408,283.285
254.4000,-0.173229,283.049
254.3000,-0.193429,282.969
254.2000,-0.208243,283.006
254.1000,-0.213496,283.013
254.0000,-0.219962,283.06
253.9000,-0.201898,283.073
253.8000,-0.218569,283.111
253.7000,-0.251849,283.139
253.6000,-0.237409,283.181
253.5000,-0.224868,283.211
253.4000,-0.212121,283.255
253.3000,-0.211225,283.284
253.2000,-0.22871,283.333
253.1000,-0.257349,283.355
253.0000,-0.266258,283.387
252.9000,-0.267083,283.682
252.8000,-0.282913,283.96
252.7000,-0.268752,284.281
252.6000,-0.260405,284.57
252.5000,-0.276913,284.883
252.4000,-0.295976,285.187
252.3000,-0.296891,285.499
252.2000,-0.310126,285.806
252.1000,-0.299178,285.955
252.0000,-0.290754,286.003
251.9000,-0.313801,286.045
251.8000,-0.371909,286.093
251.7000,-0.401359,286.135
251.6000,-0.391852,286.18
251.5000,-0.395148,286.221
251.4000,-0.405481,286.267
251.3000,-0.438776,286.307
251.2000,-0.468347,286.346
251.1000,-0.483634,286.393
251.0000,-0.492472,286.433
250.9000,-0.524188,286.48
250.8000,-0.543058,286.525
250.7000,-0.546671,286.576
250.6000,-0.550938,286.624
250.5000,-0.54052,286.664
250.4000,-0.554035,286.714
250.3000,-0.559947,286.76
250.2000,-0.574762,286.813
250.1000,-0.551503,286.864
250.0000,-0.527739,286.912
249.9000,-0.561883,286.961
249.8000,-0.589543,287.01
249.7000,-0.639408,287.071
249.6000,-0.656391,287.126
249.5000,-0.664659,287.178
249.4000,-0.704971,287.234
249.3000,-0.733456,287.286
249.2000,-0.775996,287.342
249.1000,-0.780306,287.398
249.0000,-0.776451,287.453
248.9000,-0.765198,287.501
248.8000,-0.786999,287.557
248.7000,-0.819818,287.619
248.6000,-0.843002,287.671
248.5000,-0.867758,287.734
248.4000,-0.891715,287.794
248.3000,-0.930071,287.855
248.2000,-0.964765,287.919
248.1000,-0.992791,287.984
248.0000,-1.02562,288.043
247.9000,-1.03115,288.106
247.8000,-1.06116,288.171
247.7000,-1.07025,288.227
247.6000,-1.08197,288.288
247.5000,-1.09967,288.35
247.4000,-1.11308,288.407
247.3000,-1.13075,288.467
247.2000,-1.15038,288.54
247.1000,-1.18603,288.614
247.0000,-1.2126,288.687
246.9000,-1.27218,288.774
246.8000,-1.36471,288.86
246.7000,-1.43467,288.948
246.6000,-1.51513,288.931
246.5000,-1.56474,288.739
246.4000,-1.64169,288.591
246.3000,-1.71486,288.378
246.2000,-1.77907,288.196
246.1000,-1.81067,288.012
246.0000,-1.80941,287.82
245.9000,-1.80924,287.625
245.8000,-1.82507,287.437
245.7000,-1.83815,287.549
245.6000,-1.84531,287.631
245.5000,-1.85601,287.711
245.4000,-1.89692,287.791
245.3000,-1.91361,287.874
245.2000,-1.94055,287.954
245.1000,-2.00133,288.072
245.0000,-2.06567,288.154
244.9000,-2.11889,288.235
244.8000,-2.1854,288.34
244.7000,-2.25196,288.421
244.6000,-2.30887,288.554
244.5000,-2.38676,288.657
244.4000,-2.47505,288.938
244.3000,-2.54672,289.346
244.2000,-2.64007,289.76
244.1000,-2.76889,290.183
244.0000,-2.89091,290.608
243.9000,-3.00431,291.034
243.8000,-3.08203,291.45
243.7000,-3.17104,291.888
243.6000,-3.28341,292.245
243.5000,-3.4018,292.378
243.4000,-3.51955,292.52
243.3000,-3.60529,292.661
243.2000,-3.65861,292.804
243.1000,-3.74167,292.947
243.0000,-3.84046,293.093
242.9000,-3.93677,293.246
242.8000,-4.02698,293.404
242.7000,-4.10273,293.561
242.6000,-4.21006,293.711
242.5000,-4.32334,293.859
242.4000,-4.44031,294.022
242.3000,-4.56234,294.189
242.2000,-4.66984,294.36
242.1000,-4.80409,294.53
242.0000,-4.94213,294.7
241.9000,-5.05823,294.877
241.8000,-5.14469,295.062
241.7000,-5.22712,295.247
241.6000,-5.33678,295.432
241.5000,-5.46925,295.616
241.4000,-5.61961,295.803
241.3000,-5.74519,295.997
241.2000,-5.85249,296.195
241.1000,-5.98513,296.399
241.0000,-6.1445,296.604
240.9000,-6.2784,296.818
240.8000,-6.4356,297.035
240.7000,-6.55509,297.258
240.6000,-6.64588,297.487
240.5000,-6.761,297.719
240.4000,-6.86599,297.957
240.3000,-6.97005,298.196
240.2000,-7.05736,298.44
240.1000,-7.19081,298.691
240.0000,-7.32083,298.945
239.9000,-7.44665,299.203
239.8000,-7.61704,299.465
239.7000,-7.76194,299.735
239.6000,-7.94023,300.012
239.5000,-8.13112,300.298
239.4000,-8.29529,300.59
239.3000,-8.44004,300.89
239.2000,-8.58415,301.196
239.1000,-8.71554,301.508
239.0000,-8.84194,301.827
238.9000,-9.02251,302.149
238.8000,-9.16583,302.479
238.7000,-9.30494,302.812
238.6000,-9.50107,303.143
238.5000,-9.71193,303.48
238.4000,-9.91083,303.825
238.3000,-10.1051,304.178
238.2000,-10.2971,304.54
238.1000,-10.4807,304.912
238.0000,-10.6322,304.866
237.9000,-10.7657,304.849
237.8000,-10.94,304.837
237.7000,-11.0766,304.828
237.6000,-11.2095,304.848
237.5000,-11.3632,304.831
237.4000,-11.5377,304.849
237.3000,-11.7045,304.822
237.2000,-11.8688,305.156
237.1000,-12.0822,305.519
237.0000,-12.257,305.949
236.9000,-12.3854,306.366
236.8000,-12.5743,306.756
236.7000,-12.7488,307.231
236.6000,-12.9241,307.656
236.5000,-13.0964,308.138
236.4000,-13.2748,308.593
236.3000,-13.4592,309.095
236.2000,-13.6717,309.562
236.1000,-13.9225,310.087
236.0000,-14.1676,310.55
235.9000,-14.4092,311.156
235.8000,-14.7292,312.197
235.7000,-15.088,313.22
235.6000,-15.4473,314.315
235.5000,-15.8255,315.34
235.4000,-16.1603,316.494
235.3000,-16.5051,317.566
235.2000,-16.8638,318.731
235.1000,-17.2405,319.852
235.0000,-17.5875,320.588
234.9000,-17.8214,321.245
234.8000,-18.108,321.914
234.7000,-18.3916,322.592
234.6000,-18.6527,323.276
234.5000,-18.9133,323.971
234.4000,-19.1778,324.678
234.3000,-19.421,325.391
234.2000,-19.7034,326.116
234.1000,-20.0167,326.853
234.0000,-20.2984,327.593
233.9000,-20.5743,328.344
233.8000,-20.8601,329.11
233.7000,-21.1453,329.88
233.6000,-21.425,330.662
233.5000,-21.7008,331.457
233.4000,-21.9344,332.261
233.3000,-22.156,333.068
233.2000,-22.3659,333.894
233.1000,-22.5887,334.728
233.0000,-22.8472,335.571
232.9000,-23.0822,336.419
232.8000,-23.3068,337.28
232.7000,-23.5647,338.141
232.6000,-23.8506,339.005
232.5000,-24.119,339.88
232.4000,-24.4186,340.751
232.3000,-24.6747,341.622
232.2000,-24.9234,342.492
232.1000,-25.1981,343.371
232.0000,-25.4775,344.248
231.9000,-25.7844,345.128
231.8000,-26.1061,346.018
231.7000,-26.4563,346.917
231.6000,-26.8119,347.83
231.5000,-27.1436,348.751
231.4000,-27.4744,349.683
231.3000,-27.77,350.617
231.2000,-28.1363,351.557
231.1000,-28.5347,352.502
231.0000,-28.8702,353.442
230.9000,-29.127,354.39
230.8000,-29.3996,355.33
230.7000,-29.7927,356.263
230.6000,-30.2222,357.193
230.5000,-30.6942,358.119
230.4000,-31.1218,359.035
230.3000,-31.5385,359.949
230.2000,-31.9419,360.862
230.1000,-32.3926,361.769
230.0000,-32.8582,362.661
229.9000,-33.2443,363.555
229.8000,-33.5765,364.451
229.7000,-33.8922,365.345
229.6000,-34.2421,366.249
229.5000,-34.5507,366.435
229.4000,-34.6474,366.206
229.3000,-34.6794,366.263
229.2000,-34.6749,365.789
229.1000,-34.6996,365.84
229.0000,-34.7262,365.32
228.9000,-34.7588,365.184
228.8000,-34.7553,364.704
228.7000,-34.7743,364.654
228.6000,-35.0255,365.563
228.5000,-35.2688,366.192
228.4000,-35.5876,367.179
228.3000,-35.8897,367.71
228.2000,-36.2063,368.754
228.1000,-36.5114,369.12
228.0000,-36.955,370.212
227.9000,-37.405,370.568
227.8000,-37.7257,371.407
227.7000,-38.1125,372.011
227.6000,-38.4066,372.65
227.5000,-38.8014,373.474
227.4000,-39.2776,374.061
227.3000,-39.8679,376.26
227.2000,-40.5838,378.277
227.1000,-41.3704,380.739
227.0000,-42.2786,382.812
226.9000,-43.1974,385.186
226.8000,-44.2616,387.407
226.7000,-45.3093,389.538
226.6000,-46.1859,392.091
226.5000,-47.0302,393.661
226.4000,-47.6531,394.488
226.3000,-48.1346,395.313
226.2000,-48.5489,396.149
226.1000,-48.9418,396.984
226.0000,-49.2997,397.805
225.9000,-49.5997,398.622
225.8000,-49.9765,399.45
225.7000,-50.4208,400.271
225.6000,-50.8734,401.094
225.5000,-51.3009,401.921
225.4000,-51.8003,402.734
225.3000,-52.2823,403.545
225.2000,-52.8222,404.357
225.1000,-53.3658,405.172
225.0000,-53.8845,405.982
224.9000,-54.2753,406.793
224.8000,-54.6873,407.599
224.7000,-55.1712,408.403
224.6000,-55.5095,409.212
224.5000,-55.8584,410.017
224.4000,-56.2334,410.824
224.3000,-56.5502,411.637
224.2000,-56.856,412.449
224.1000,-57.1084,413.26
224.0000,-57.3428,414.079
223.9000,-57.6294,414.894
223.8000,-57.9557,415.703
223.7000,-58.2517,416.517
223.6000,-58.4456,417.332
223.5000,-58.6368,418.145
223.4000,-58.849,418.954
223.3000,-59.1212,419.754
223.2000,-59.4605,420.555
223.1000,-59.7999,421.355
223.0000,-60.1672,422.16
222.9000,-60.5516,422.964
222.8000,-60.8769,423.771
222.7000,-61.2878,424.575
222.6000,-61.5686,425.382
222.5000,-61.8214,426.193
222.4000,-62.0759,427.005
222.3000,-62.3375,427.817
222.2000,-62.4422,428.634
222.1000,-62.5543,429.453
222.0000,-62.7244,430.271
221.9000,-62.9958,431.082
221.8000,-63.1761,431.89
221.7000,-63.4496,432.704
221.6000,-63.6309,433.528
221.5000,-63.8623,434.342
221.4000,-63.979,435.154
221.3000,-64.0578,435.972
221.2000,-64.2408,436.789
221.1000,-64.2261,437.612
221.0000,-64.2729,438.349
220.9000,-64.0183,436.156
220.8000,-63.5418,433.655
220.7000,-62.9676,432.25
220.6000,-62.2936,429.099
220.5000,-61.6929,428.152
220.4000,-61.0751,424.774
220.3000,-60.5586,423.552
220.2000,-59.9342,420.473
220.1000,-59.4234,420.52
220.0000,-59.1123,421.855
219.9000,-58.8795,421.251
219.8000,-58.8145,423.043
219.7000,-58.8345,422.077
219.6000,-58.7127,423.868
219.5000,-58.5597,423.395
219.4000,-58.3962,425.087
219.3000,-58.4001,425.074
219.2000,-58.6057,426.267
219.1000,-58.7102,426.942
219.0000,-58.714,427.394
218.9000,-58.6272,428.647
218.8000,-58.5619,428.84
218.7000,-58.8579,433.954
218.6000,-59.4746,437.27
218.5000,-60.2848,442.117
218.4000,-61.0641,445.933
218.3000,-61.7712,450.428
218.2000,-62.5042,454.841
218.1000,-63.3285,458.876
218.0000,-64.1713,463.908
217.9000,-64.7665,464.984
217.8000,-64.9189,465.827
217.7000,-64.9989,466.677
217.6000,-64.8486,467.539
217.5000,-64.7869,468.408
217.4000,-64.7444,469.281
217.3000,-64.776,470.156
217.2000,-64.749,471.047
217.1000,-64.6653,471.953
217.0000,-64.5886,472.876
216.9000,-64.6348,473.817
216.8000,-64.6929,474.762
216.7000,-64.7202,475.712
216.6000,-64.5725,476.675
216.5000,-64.4835,477.652
216.4000,-64.4342,478.64
216.3000,-64.4823,479.634
216.2000,-64.4018,480.646
216.1000,-64.2121,481.672
216.0000,-64.0044,482.717
215.9000,-63.761,483.781
215.8000,-63.7252,484.854
215.7000,-63.7093,485.943
215.6000,-63.8133,487.043
215.5000,-63.6005,488.179
215.4000,-63.5211,489.335
215.3000,-63.4245,490.513
215.2000,-63.3998,491.696
215.1000,-63.0651,492.905
215.0000,-62.9194,494.124
214.9000,-62.9643,495.355
214.8000,-62.8296,496.604
214.7000,-62.6961,497.862
214.6000,-62.5567,499.131
214.5000,-62.5379,500.402
214.4000,-62.3129,501.702
214.3000,-62.1535,503.028
214.2000,-62.223,504.371
214.1000,-62.081,505.738
214.0000,-61.8377,507.134
213.9000,-61.5741,508.566
213.8000,-61.5926,510.008
213.7000,-61.6226,511.473
213.6000,-61.4854,512.975
213.5000,-61.6712,514.502
213.4000,-61.5183,516.055
213.3000,-61.3901,517.633
213.2000,-61.2337,519.241
213.1000,-61.2253,520.851
213.0000,-61.0658,522.486
212.9000,-60.8936,524.155
212.8000,-60.8685,525.829
212.7000,-60.5481,527.532
212.6000,-60.3393,529.255
212.5000,-60.0008,531.016
212.4000,-59.5076,530.919
212.3000,-58.9083,527.427
212.2000,-58.2864,523.359
212.1000,-57.5464,520.187
212.0000,-56.6304,515.853
211.9000,-55.6217,512.816
211.8000,-54.6189,508.764
211.7000,-53.4048,504.871
211.6000,-52.5192,501.675
211.5000,-52.0531,502.01
211.4000,-51.5231,504.447
211.3000,-51.2604,504.805
211.2000,-50.617,507.174
211.1000,-50.2939,507.849
211.0000,-50.2139,510.091
210.9000,-50.5699,511.632
210.8000,-51.0909,513.604
210.7000,-51.0022,515.936
210.6000,-50.8421,517.266
210.5000,-50.7071,520.098
210.4000,-50.7397,521.033
210.3000,-50.8349,523.786
210.2000,-51.4983,527.798
210.1000,-51.6631,536.48
210.0000,-51.9101,545.683
209.9000,-52.2533,554.414
209.8000,-53.2414,564.098
209.7000,-54.3947,572.784
209.6000,-55.262,582.882
209.5000,-56.1178,591.618
209.4000,-56.3307,600.695
209.3000,-56.4702,604.165
209.2000,-56.6629,607.078
209.1000,-56.8609,610.035
209.0000,-56.9551,613.032
208.9000,-56.8785,616.089
208.8000,-56.9367,619.2
208.7000,-57.3317,622.34
208.6000,-57.5633,625.533
208.5000,-57.0102,628.816
208.4000,-56.8613,632.123
208.3000,-57.3161,635.456
208.2000,-57.2142,638.863
208.1000,-56.9009,642.325
208.0000,-56.9918,645.799
207.9000,-56.5013,649.328
207.8000,-56.0907,652.913
207.7000,-56.2299,656.528
207.6000,-56.3469,660.204
207.5000,-56.1366,663.944
207.4000,-56.2937,667.711
207.3000,-55.923,671.525
207.2000,-55.788,675.402
207.1000,-56.2192,679.335
207.0000,-55.2026,683.341
206.9000,-55.117,687.338
206.8000,-55.0331,691.371
206.7000,-54.8474,695.457
206.6000,-53.107,699.638
206.5000,-51.9176,703.832
206.4000,-50.8568,708.053
206.3000,-49.6081,712.292
206.2000,-48.9995,716.53
206.1000,-47.6209,720.849
206.0000,-45.8024,725.207
205.9000,-43.3319,729.582
205.8000,-41.4322,733.948
205.7000,-40.7822,738.299
205.6000,-40.3924,742.674
205.5000,-38.727,747.119
205.4000,-37.6861,751.573
205.3000,-37.5771,756.005
205.2000,-36.7013,760.472
205.1000,-35.5781,764.956
205.0000,-35.6553,769.395
204.9000,-34.2557,773.861
204.8000,-34.4689,778.245
204.7000,-34.6395,782.607
204.6000,-33.6759,786.969
204.5000,-32.4075,791.291
204.4000,-28.9638,795.631
204.3000,-28.0914,799.844
204.2000,-26.7621,804.022
204.1000,-24.5848,808.153
204.0000,-21.3211,812.287
203.9000,-17.8494,815.508
203.8000,-14.7324,812.412
203.7000,-12.1475,806.846
203.6000,-8.59302,796.602
203.5000,-5.85543,791
203.4000,-3.97985,781.669
203.3000,-1.60131,775.359
203.2000,-1.2242,767.232
203.1000,1.54385,759.164
203.0000,0.844342,757.441
202.9000,1.6103,757.216
202.8000,1.3609,764.585
202.7000,1.75913,765.483
202.6000,4.45799,771.674
202.5000,5.76235,774.1
202.4000,7.25132,778.976
202.3000,10.9499,783.499
202.2000,11.4671,788.058
202.1000,12.8685,795.391
202.0000,13.3545,799.631
201.9000,13.28,807.496
201.8000,7.31207,809.286
201.7000,1.10112,818.276
201.6000,1.23329,828.067
201.5000,-1.86864,846.55
201.4000,-7.09362,863.747
201.3000,-8.37959,878.691
201.2000,-10.6481,895.414
201.1000,-11.8239,908.207
201.0000,-11.6381,926.323
200.9000,-5.02797,938.716
200.8000,-2.40855,949.882
200.7000,1.37557,952.172
200.6000,8.71511,952.917
200.5000,14.4797,953.767
200.4000,22.9869,954.793
200.3000,26.6582,955.667
200.2000,25.856,956.31
200.1000,26.1023,956.706
200.0000,27.3948,956.885
199.9000,25.3621,956.746
199.8000,21.5901,956.382
199.7000,18.3968,955.756
199.6000,13.3129,954.877
199.5000,9.21706,953.859
199.4000,15.11,952.877
199.3000,20.4273,951.75
199.2000,16.7312,950.251
199.1000,14.9414,948.528
199.0000,12.832,946.623
198.9000,17.7996,944.855
198.8000,20.1038,943.011
198.7000,23.0265,941.253
198.6000,22.0971,939.28
198.5000,23.3356,937.486
198.4000,26.7805,935.629
198.3000,32.58,934.014
198.2000,32.6992,932.36
198.1000,33.5089,930.713
198.0000,32.5047,929.089
197.9000,28.3175,927.336
197.8000,24.7906,925.413
197.7000,17.9395,923.517
197.6000,11.0907,921.677
197.5000,7.03237,919.447
197.4000,4.40559,917.175
197.3000,3.12969,915.213
197.2000,1.899,913.101
197.1000,4.62022,910.66
197.0000,6.04191,908.231
196.9000,6.46632,905.576
196.8000,9.80539,902.806
196.7000,12.2229,900.289
196.6000,15.883,897.457
196.5000,13.2246,894.247
196.4000,7.58705,890.815
196.3000,4.00756,887.454
196.2000,1.39633,884.009
196.1000,0.387391,880.656
196.0000,-0.24876,877.294
195.9000,-2.36201,873.845
195.8000,-6.14345,870.305
195.7000,-4.87605,866.911
195.6000,-0.348812,863.67
195.5000,1.31763,858.673
195.4000,-0.735135,852.948
195.3000,-0.253481,845.916
195.2000,0.443606,831.017
195.1000,1.39536,816.584
195.0000,2.71203,796.76
194.9000,5.37329,788.865
194.8000,5.38388,775.003
194.7000,6.55609,767.529
194.6000,8.07734,751.992
194.5000,6.2342,745.544
194.4000,6.25156,750.705
194.3000,5.71372,759.294
194.2000,0.141509,768.746
194.1000,-4.8885,774.674
194.0000,-4.72284,786.813
193.9000,-1.36576,800.035
193.8000,0.526935,815.167
193.7000,4.22679,827.315
193.6000,4.83921,840.387
193.5000,2.42046,844.857
193.4000,3.46675,857.573
193.3000,8.4311,860.841
193.2000,8.22623,862.44
193.1000,3.89918,865.925
193.0000,0.537981,874.853
192.9000,0.126373,893.616
192.8000,0.162076,902.177
192.7000,-3.27144,919.57
192.6000,-2.2617,932.199
192.5000,3.93625,954.533
192.4000,6.84137,968.597
192.3000,8.9271,985.057
192.2000,12.1587,992.121
192.1000,14.9066,997.533
192.0000,17.6456,999.441
191.9000,20.0474,999.61
191.8000,23.8032,999.087
191.7000,19.5057,998.489
191.6000,17.01,997.995
191.5000,12.3903,997.16
191.4000,8.08049,993.052
191.3000,3.13452,993.117
191.2000,0.914712,993.231
191.1000,-2.26318,993.127
191.0000,-4.99526,992.869
190.9000,-4.77847,992.72
190.8000,-4.27718,992.548
190.7000,-3.91828,992.185
190.6000,0.0717364,995.168
190.5000,6.54456,994.668
190.4000,10.4189,993.322
190.3000,13.4466,992.095
190.2000,21.6061,990.881
190.1000,26.1831,989.456
190.0000,24.8399,987.826

##### Extended Information
[Comments]
Sample name,Dl121-D87A-2 lit
Comment,lit
User
Division
Company,UT Southwestern Medical Center at Dallas

[Detailed Information]
Creation date,2/9/2023 2:39 PM

Data array type,Linear data array * 2
Horizontal axis,Wavelength [nm]
Vertical axis(1),CD [mdeg]
Vertical axis(2),HT [V]
Start,260 nm
End,190 nm
Data interval,0.1 nm
Data points,701     

[Measurement Information]
Instrument name,Jasco CD
Model name,J-815
Serial No.,B064061168

Accessory,CDF-426S
Accessory S/N,A00861183
  Temperature,15.00 C
  Control sonsor,Holder
  Monitor sensor,Holder
  Start Mode,Keep target temperature +/-0.10 deg C while 5 seconds
  Cell length,10 mm

Measurement date,2/9/2023 2:39 PM

Photometric mode,CD, HT
Measure range,260 - 190 nm
Data pitch,0.1 nm
Sensitivity,Standard
D.I.T.,1 sec
Bandwidth,1.00 nm
Start mode,Immediately
Scanning speed,50 nm/min
Baseline correction,None
Shutter control,Manual
CD detector,PMT
PMT voltage,Auto
Accumulations,10

Concentration,0.02 (w/v)%

