TITLE,Dl121-D116M lit 2
DATA TYPE,
ORIGIN,JASCO
OWNER,
DATE,23/02/14
TIME,12:04:16
SPECTROMETER/DATA SYSTEM,
LOCALE,1033
RESOLUTION,
DELTAX,-0.1
XUNITS,NANOMETERS
YUNITS,CD [mdeg]
Y2UNITS,HT [V]
FIRSTX,  260.0000
LASTX,  190.0000
NPOINTS,     701
FIRSTY,    -0.11131
MAXY,    49.75933
MINY,   -63.90260
XYDATA
260.0000,-0.11131,283.111
259.9000,0.0164124,283.155
259.8000,0.0515411,283.208
259.7000,0.0904205,283.264
259.6000,0.155292,283.311
259.5000,0.175003,283.359
259.4000,0.184317,283.427
259.3000,0.250406,283.49
259.2000,0.214529,283.536
259.1000,0.157568,283.601
259.0000,0.196799,283.658
258.9000,0.258224,283.7
258.8000,0.230948,283.755
258.7000,0.276825,283.809
258.6000,0.254593,283.846
258.5000,0.140573,283.886
258.4000,0.0600342,283.927
258.3000,0.0109375,283.96
258.2000,-0.0630035,283.983
258.1000,-0.154565,284.011
258.0000,-0.166904,284.039
257.9000,-0.203107,284.065
257.8000,-0.249533,283.213
257.7000,-0.240091,280.573
257.6000,-0.204758,278.594
257.5000,-0.290985,278.568
257.4000,-0.335873,278.588
257.3000,-0.316785,278.617
257.2000,-0.348437,278.642
257.1000,-0.307822,278.674
257.0000,-0.239636,278.712
256.9000,-0.0596436,281.423
256.8000,0.019632,283.959
256.7000,0.0577423,284.397
256.6000,0.0772491,284.447
256.5000,0.0674957,284.483
256.4000,0.0532928,284.52
256.3000,0.0457672,284.551
256.2000,0.0405243,284.59
256.1000,0.00662842,284.638
256.0000,-0.0322113,284.676
255.9000,-0.0335907,284.718
255.8000,0.0102936,284.749
255.7000,0.0645081,284.781
255.6000,0.117883,284.822
255.5000,0.0883911,284.877
255.4000,0.0742859,284.926
255.3000,0.0199463,284.959
255.2000,0.00496216,284.998
255.1000,0.0623962,285.03
255.0000,0.121844,285.072
254.9000,0.166977,285.122
254.8000,0.199896,285.172
254.7000,0.181305,285.208
254.6000,0.140564,285.23
254.5000,0.212009,285.276
254.4000,0.235004,285.315
254.3000,0.181934,285.361
254.2000,0.147839,285.405
254.1000,0.0743622,285.443
254.0000,0.00906982,285.484
253.9000,0.0025238,285.523
253.8000,0.0370239,285.572
253.7000,0.00999145,285.611
253.6000,-0.0285431,285.649
253.5000,-0.0574158,285.698
253.4000,-0.0904449,285.74
253.3000,-0.072879,285.782
253.2000,-0.10126,285.823
253.1000,-0.148801,285.871
253.0000,-0.156747,285.917
252.9000,-0.195898,285.969
252.8000,-0.218698,286.023
252.7000,-0.20195,286.079
252.6000,-0.166635,286.129
252.5000,-0.173434,286.181
252.4000,-0.153589,286.233
252.3000,-0.127231,286.277
252.2000,-0.0605835,286.327
252.1000,0.0120178,286.381
252.0000,0.0775085,286.417
251.9000,0.068158,286.445
251.8000,-0.0612152,286.476
251.7000,-0.115814,286.509
251.6000,-0.153653,286.547
251.5000,-0.167444,286.595
251.4000,-0.207657,286.643
251.3000,-0.337585,286.685
251.2000,-0.390549,286.724
251.1000,-0.48988,286.767
251.0000,-0.420282,286.82
250.9000,-0.377829,286.874
250.8000,-0.355612,286.917
250.7000,-0.30697,286.968
250.6000,-0.339529,287.007
250.5000,-0.242816,287.044
250.4000,-0.17785,287.097
250.3000,-0.150159,287.153
250.2000,-0.153336,287.209
250.1000,-0.283255,287.252
250.0000,-0.383447,287.301
249.9000,-0.525488,287.348
249.8000,-0.620132,287.397
249.7000,-0.712036,287.459
249.6000,-0.758524,287.513
249.5000,-0.793347,287.564
249.4000,-0.850629,287.612
249.3000,-0.795169,287.664
249.2000,-0.627231,284.977
249.1000,-0.523502,282.289
249.0000,-0.447818,281.742
248.9000,-0.331592,281.8
248.8000,-0.358325,281.859
248.7000,-0.417807,281.916
248.6000,-0.408069,281.978
248.5000,-0.366,282.044
248.4000,-0.487036,283.886
248.3000,-0.698508,286.774
248.2000,-0.855026,288.335
248.1000,-0.898822,288.407
248.0000,-0.877069,288.468
247.9000,-0.907355,288.542
247.8000,-0.86532,288.608
247.7000,-0.810925,288.67
247.6000,-0.811758,288.733
247.5000,-0.770331,288.797
247.4000,-0.700183,288.852
247.3000,-0.712476,288.921
247.2000,-0.734842,288.999
247.1000,-0.760916,289.073
247.0000,-0.857431,289.143
246.9000,-0.959463,289.229
246.8000,-1.04364,289.32
246.7000,-1.1117,289.406
246.6000,-1.16774,289.514
246.5000,-1.34387,289.611
246.4000,-1.54388,289.703
246.3000,-1.59685,289.793
246.2000,-1.55433,289.888
246.1000,-1.55669,289.997
246.0000,-1.61979,290.106
245.9000,-1.64384,290.203
245.8000,-1.62964,290.29
245.7000,-1.5397,290.387
245.6000,-1.52414,290.485
245.5000,-1.68211,290.581
245.4000,-1.85544,290.676
245.3000,-2.08722,290.759
245.2000,-2.24519,290.842
245.1000,-2.33947,290.94
245.0000,-2.45521,291.044
244.9000,-2.55546,291.131
244.8000,-2.5778,291.223
244.7000,-2.54731,291.333
244.6000,-2.55347,291.458
244.5000,-2.57191,291.584
244.4000,-2.60487,291.705
244.3000,-2.6491,291.822
244.2000,-2.76548,291.945
244.1000,-2.86583,292.083
244.0000,-3.0218,292.227
243.9000,-3.1762,292.371
243.8000,-3.29865,292.494
243.7000,-3.34163,292.618
243.6000,-3.39821,292.757
243.5000,-3.42321,292.888
243.4000,-3.41359,293.03
243.3000,-3.4264,293.174
243.2000,-3.48465,293.32
243.1000,-3.47164,293.46
243.0000,-3.44442,293.612
242.9000,-3.54455,293.769
242.8000,-3.63954,293.916
242.7000,-3.73716,294.076
242.6000,-3.83972,294.247
242.5000,-3.93766,294.409
242.4000,-4.00784,294.579
242.3000,-4.20194,294.744
242.2000,-4.33564,294.913
242.1000,-4.46108,295.086
242.0000,-4.57903,295.276
241.9000,-4.69993,295.46
241.8000,-4.78108,295.647
241.7000,-4.85151,295.828
241.6000,-4.98925,295.998
241.5000,-5.05658,296.181
241.4000,-5.18141,296.364
241.3000,-5.32131,296.55
241.2000,-5.37226,296.744
241.1000,-5.39576,296.95
241.0000,-5.53659,297.145
240.9000,-5.7196,297.347
240.8000,-5.93333,297.572
240.7000,-6.01372,295.731
240.6000,-5.78578,292.345
240.5000,-5.519,290.454
240.4000,-5.63743,290.687
240.3000,-5.8767,290.932
240.2000,-6.14904,291.19
240.1000,-6.3868,291.463
240.0000,-6.54794,291.738
239.9000,-6.70651,292.685
239.8000,-7.14365,296.823
239.7000,-7.63956,300.287
239.6000,-7.90069,300.704
239.5000,-8.11476,301.006
239.4000,-8.21978,301.309
239.3000,-8.35091,301.613
239.2000,-8.48017,301.919
239.1000,-8.64931,302.229
239.0000,-8.89686,302.547
238.9000,-9.14796,302.878
238.8000,-9.46682,303.199
238.7000,-9.6279,303.532
238.6000,-9.76131,303.862
238.5000,-9.85628,304.196
238.4000,-10.0334,304.535
238.3000,-10.2477,304.888
238.2000,-10.4521,305.241
238.1000,-10.6414,305.6
238.0000,-10.827,305.977
237.9000,-10.96,306.362
237.8000,-11.1164,306.746
237.7000,-11.3187,307.157
237.6000,-11.5279,307.577
237.5000,-11.6595,307.999
237.4000,-11.8722,308.431
237.3000,-11.9922,308.876
237.2000,-12.0766,309.337
237.1000,-12.2392,309.788
237.0000,-12.4368,310.255
236.9000,-12.72,310.72
236.8000,-12.8833,311.186
236.7000,-13.0721,311.671
236.6000,-13.1678,312.161
236.5000,-13.2683,312.67
236.4000,-13.476,313.175
236.3000,-13.842,313.69
236.2000,-14.1917,314.226
236.1000,-14.4221,314.777
236.0000,-14.7063,315.355
235.9000,-15.0634,315.93
235.8000,-15.3431,316.518
235.7000,-15.6562,317.099
235.6000,-15.9274,317.698
235.5000,-16.1135,318.32
235.4000,-16.2614,318.944
235.3000,-16.5289,319.569
235.2000,-16.7698,320.197
235.1000,-16.9455,320.836
235.0000,-17.1331,321.485
234.9000,-17.4125,322.152
234.8000,-17.6754,322.824
234.7000,-17.8737,323.495
234.6000,-18.1981,324.191
234.5000,-18.4916,324.892
234.4000,-18.7062,325.605
234.3000,-18.968,326.33
234.2000,-19.3098,327.055
234.1000,-19.6055,327.792
234.0000,-19.9188,328.544
233.9000,-20.2648,329.317
233.8000,-20.4936,330.1
233.7000,-20.7621,330.879
233.6000,-21.0044,331.681
233.5000,-21.3392,332.483
233.4000,-21.6226,333.299
233.3000,-21.8096,334.136
233.2000,-22.1475,334.982
233.1000,-22.5121,335.819
233.0000,-22.7588,336.658
232.9000,-23.0992,337.494
232.8000,-23.4035,338.355
232.7000,-23.7049,339.22
232.6000,-23.9831,340.092
232.5000,-24.3103,340.955
232.4000,-24.6737,341.82
232.3000,-24.9301,342.695
232.2000,-25.3541,343.19
232.1000,-24.4348,334.525
232.0000,-22.6144,327.831
231.9000,-21.523,328.187
231.8000,-21.3879,329.119
231.7000,-21.6098,330.062
231.6000,-21.889,331.013
231.5000,-22.1476,331.959
231.4000,-22.3926,332.932
231.3000,-23.2689,341.1
231.2000,-25.5028,350.006
231.1000,-27.6359,353.881
231.0000,-28.72,354.815
230.9000,-29.161,355.757
230.8000,-29.3853,356.708
230.7000,-29.5974,357.651
230.6000,-29.8728,358.574
230.5000,-30.1787,359.507
230.4000,-30.4795,360.436
230.3000,-30.7459,361.361
230.2000,-31.0406,362.282
230.1000,-31.4654,363.198
230.0000,-31.8323,364.082
229.9000,-32.2169,364.97
229.8000,-32.6818,365.883
229.7000,-33.1136,366.782
229.6000,-33.4251,367.699
229.5000,-33.6485,368.619
229.4000,-33.7385,369.544
229.3000,-33.7871,370.475
229.2000,-33.9463,371.407
229.1000,-34.1932,372.351
229.0000,-34.5258,373.273
228.9000,-34.7154,374.208
228.8000,-35.036,375.133
228.7000,-35.6338,376.04
228.6000,-36.3497,376.949
228.5000,-36.8658,377.865
228.4000,-37.3576,378.792
228.3000,-37.6157,379.715
228.2000,-37.9323,380.631
228.1000,-38.4728,381.543
228.0000,-39.197,382.433
227.9000,-39.812,383.328
227.8000,-40.1283,384.228
227.7000,-40.7494,385.113
227.6000,-41.4914,385.98
227.5000,-42.3224,386.838
227.4000,-43.1254,387.689
227.3000,-43.6274,388.551
227.2000,-43.8881,389.423
227.1000,-44.3701,390.281
227.0000,-44.7397,391.145
226.9000,-45.0506,392.01
226.8000,-45.0737,392.873
226.7000,-45.1363,393.711
226.6000,-45.4228,394.559
226.5000,-45.6481,395.4
226.4000,-46.0424,396.226
226.3000,-46.3624,397.086
226.2000,-46.7874,397.948
226.1000,-47.4864,398.795
226.0000,-48.233,399.643
225.9000,-48.8301,400.507
225.8000,-49.1989,401.385
225.7000,-49.4374,402.258
225.6000,-49.8441,403.146
225.5000,-50.0725,404.006
225.4000,-50.1701,404.849
225.3000,-50.4171,405.689
225.2000,-50.5746,406.507
225.1000,-50.7914,407.33
225.0000,-50.8825,408.165
224.9000,-51.0799,408.989
224.8000,-51.3163,409.807
224.7000,-51.5907,410.606
224.6000,-52.044,411.424
224.5000,-52.1422,412.25
224.4000,-52.0787,413.084
224.3000,-52.539,413.909
224.2000,-53.3148,414.724
224.1000,-53.7816,415.545
224.0000,-54.2068,416.35
223.9000,-54.5453,417.175
223.8000,-54.8375,417.991
223.7000,-55.1438,418.804
223.6000,-53.9344,406.506
223.5000,-49.2233,373.624
223.4000,-44.1821,366.704
223.3000,-42.0078,367.558
223.2000,-41.7266,368.425
223.1000,-41.9712,369.287
223.0000,-42.1865,370.147
222.9000,-42.8107,370.993
222.8000,-43.8401,375.99
222.7000,-48.1523,411.488
222.6000,-53.7371,427.883
222.5000,-57.1835,428.924
222.4000,-58.4479,429.719
222.3000,-59.0567,430.515
222.2000,-59.6299,431.335
222.1000,-59.6092,432.158
222.0000,-59.5927,432.956
221.9000,-59.7149,433.758
221.8000,-59.6357,434.567
221.7000,-59.1658,435.388
221.6000,-58.9335,436.184
221.5000,-58.8699,436.989
221.4000,-58.9505,437.779
221.3000,-59.1677,438.544
221.2000,-59.2553,439.327
221.1000,-59.2391,440.132
221.0000,-59.6714,440.925
220.9000,-60.502,441.695
220.8000,-60.9493,442.508
220.7000,-60.9607,443.337
220.6000,-60.7219,444.154
220.5000,-60.2489,445.009
220.4000,-60.1101,445.864
220.3000,-60.3955,446.701
220.2000,-60.3938,447.559
220.1000,-60.0027,448.44
220.0000,-60.2035,449.29
219.9000,-60.7671,450.133
219.8000,-60.8272,450.986
219.7000,-60.7498,451.853
219.6000,-60.5659,452.733
219.5000,-60.4685,453.64
219.4000,-60.6106,454.521
219.3000,-61.1126,455.378
219.2000,-61.3262,456.247
219.1000,-61.2476,457.115
219.0000,-60.9692,457.999
218.9000,-60.8223,458.879
218.8000,-60.9628,459.737
218.7000,-61.3252,460.562
218.6000,-61.2351,461.408
218.5000,-60.6707,462.285
218.4000,-60.2258,463.171
218.3000,-59.6538,464.051
218.2000,-60.1313,464.912
218.1000,-60.8802,465.767
218.0000,-61.1264,466.633
217.9000,-60.6569,467.528
217.8000,-59.7278,468.456
217.7000,-59.7341,469.349
217.6000,-59.7432,470.244
217.5000,-59.8982,471.16
217.4000,-59.4618,472.099
217.3000,-59.226,473.05
217.2000,-59.6979,473.982
217.1000,-60.3521,474.925
217.0000,-61.3359,475.858
216.9000,-61.843,476.82
216.8000,-62.6522,477.787
216.7000,-63.3595,478.756
216.6000,-63.8775,479.755
216.5000,-63.9026,480.779
216.4000,-63.3536,481.837
216.3000,-63.2385,482.902
216.2000,-63.2987,483.97
216.1000,-63.3344,485.028
216.0000,-62.9537,486.128
215.9000,-62.4674,487.251
215.8000,-61.8455,488.392
215.7000,-61.6691,489.531
215.6000,-61.6009,490.698
215.5000,-60.7613,491.899
215.4000,-60.0227,493.11
215.3000,-59.7436,494.342
215.2000,-59.5792,495.562
215.1000,-58.3478,493.406
215.0000,-53.9559,455.224
214.9000,-47.5561,402.74
214.8000,-42.4592,397.253
214.7000,-41.0778,398.575
214.6000,-40.3993,399.945
214.5000,-39.8569,401.333
214.4000,-39.4113,402.744
214.3000,-39.7356,404.178
214.2000,-43.642,432.326
214.1000,-49.9465,485.759
214.0000,-56.5688,511.594
213.9000,-60.1627,513.12
213.8000,-61.9878,514.486
213.7000,-63.3689,515.874
213.6000,-63.8128,517.326
213.5000,-63.8693,518.797
213.4000,-63.1971,520.327
213.3000,-62.0423,521.921
213.2000,-61.3489,523.514
213.1000,-60.5494,525.123
213.0000,-59.6059,526.756
212.9000,-58.4791,528.412
212.8000,-57.3765,530.095
212.7000,-56.551,531.775
212.6000,-56.2869,533.468
212.5000,-56.7041,535.173
212.4000,-57.0059,536.864
212.3000,-56.6307,538.605
212.2000,-56.4365,540.389
212.1000,-56.4651,542.193
212.0000,-56.5747,544.009
211.9000,-56.2331,545.888
211.8000,-56.1456,547.788
211.7000,-55.5369,549.72
211.6000,-54.1571,551.751
211.5000,-53.9506,553.782
211.4000,-53.4741,555.827
211.3000,-52.5114,557.934
211.2000,-53.1323,560.036
211.1000,-53.5769,562.169
211.0000,-53.0396,564.366
210.9000,-53.4255,566.584
210.8000,-54.189,568.817
210.7000,-54.0887,571.133
210.6000,-54.5044,573.487
210.5000,-54.7355,575.88
210.4000,-55.0049,578.311
210.3000,-55.1515,580.794
210.2000,-56.2269,583.277
210.1000,-56.4984,585.819
210.0000,-57.5358,588.394
209.9000,-58.4968,591.014
209.8000,-59.4233,593.686
209.7000,-60.0271,596.44
209.6000,-59.4133,599.285
209.5000,-59.2246,602.191
209.4000,-57.7636,605.202
209.3000,-56.449,608.285
209.2000,-55.7015,611.411
209.1000,-55.5971,614.555
209.0000,-55.0759,617.756
208.9000,-53.6132,621.027
208.8000,-52.9422,624.313
208.7000,-52.3411,627.643
208.6000,-51.6891,631.076
208.5000,-50.6036,634.586
208.4000,-52.3337,638.068
208.3000,-54.1376,641.62
208.2000,-52.6634,645.329
208.1000,-52.8457,649.07
208.0000,-52.8673,652.885
207.9000,-52.3326,656.786
207.8000,-52.8274,660.672
207.7000,-56.3021,664.5
207.6000,-54.5073,668.574
207.5000,-51.9634,672.705
207.4000,-50.1963,676.893
207.3000,-51.3644,681.055
207.2000,-52.2158,685.297
207.1000,-52.5897,689.604
207.0000,-53.6029,693.954
206.9000,-50.746,698.495
206.8000,-50.3706,702.995
206.7000,-50.6954,707.536
206.6000,-48.3553,712.214
206.5000,-44.4086,680.687
206.4000,-38.0813,609.547
206.3000,-32.2364,529.51
206.2000,-25.7945,515.697
206.1000,-22.2598,521.594
206.0000,-22.9659,527.299
205.9000,-22.0944,532.866
205.8000,-20.2544,538.494
205.7000,-19.1514,560.828
205.6000,-25.4887,634.811
205.5000,-27.0157,724.299
205.4000,-32.6964,776.532
205.3000,-35.9192,782.152
205.2000,-31.2588,787.295
205.1000,-27.5563,792.785
205.0000,-30.2992,798.238
204.9000,-36.1209,803.674
204.8000,-33.9553,809.409
204.7000,-23.8593,815.396
204.6000,-22.5328,821.091
204.5000,-20.2196,826.808
204.4000,-20.2901,832.388
204.3000,-21.7001,837.915
204.2000,-14.4269,843.585
204.1000,-11.5488,849.014
204.0000,-2.91634,854.493
203.9000,-10.5881,859.276
203.8000,-19.2865,863.932
203.7000,-24.0126,868.566
203.6000,-26.8697,873.019
203.5000,-25.4477,877.344
203.4000,-26.2507,881.344
203.3000,-13.1937,885.548
203.2000,-4.45913,889.425
203.1000,5.83438,893.128
203.0000,29.9942,897.151
202.9000,38.9928,900.453
202.8000,48.4251,903.628
202.7000,49.7593,906.368
202.6000,46.2703,908.886
202.5000,36.2626,910.976
202.4000,14.1828,912.475
202.3000,11.4319,914.387
202.2000,-4.92619,915.622
202.1000,5.23593,917.315
202.0000,17.2426,918.833
201.9000,21.949,919.98
201.8000,21.6312,920.825
201.7000,28.7794,921.7
201.6000,41.6492,922.666
201.5000,33.7975,922.84
201.4000,11.1989,922.427
201.3000,-6.08812,922.091
201.2000,-18.7426,921.955
201.1000,-5.6519,922.369
201.0000,-6.1103,922.055
200.9000,2.82604,921.958
200.8000,-1.18729,920.778
200.7000,-8.60999,919.456
200.6000,1.81846,918.725
200.5000,9.62534,917.785
200.4000,20.5844,916.927
200.3000,9.29116,914.892
200.2000,-3.19729,913.096
200.1000,-16.8386,910.721
200.0000,-40.3587,908.334
199.9000,-33.8793,905.996
199.8000,-6.48466,904.221
199.7000,1.50245,901.979
199.6000,3.35515,898.464
199.5000,5.73186,895.15
199.4000,11.3839,892.12
199.3000,21.8639,889.083
199.2000,43.2983,886.362
199.1000,45.4579,883.595
199.0000,34.9713,880.421
198.9000,11.4928,876.118
198.8000,4.39068,873.057
198.7000,-2.98289,871.118
198.6000,-10.0303,868.613
198.5000,-24.1821,864.337
198.4000,-25.9537,861.682
198.3000,-28.2713,858.793
198.2000,-23.8317,855.91
198.1000,-15.5704,854.367
198.0000,-6.50291,836.974
197.9000,-4.52734,758.171
197.8000,-2.46569,660.914
197.7000,1.41098,587.398
197.6000,6.0067,601.031
197.5000,-2.02442,621.178
197.4000,8.92744,630.399
197.3000,13.6394,617.353
197.2000,9.2484,618.919
197.1000,14.4619,678.278
197.0000,18.6172,768.24
196.9000,20.8861,860.45
196.8000,19.8028,862.81
196.7000,27.4244,841.24
196.6000,24.2399,820.299
196.5000,16.88,829.284
196.4000,21.3769,819.899
196.3000,20.7845,812.851
196.2000,18.4883,801.153
196.1000,21.7833,816.959
196.0000,25.1403,833.676
195.9000,25.4766,850.015
195.8000,11.1319,866.634
195.7000,6.09985,885.149
195.6000,1.8001,910.205
195.5000,4.00765,931.303
195.4000,3.1069,967.268
195.3000,8.31392,968.479
195.2000,3.56793,968.471
195.1000,-3.85855,968.265
195.0000,11.9359,968.913
194.9000,23.5651,969.652
194.8000,41.0196,970.709
194.7000,45.9994,971.346
194.6000,46.6927,971.596
194.5000,41.6015,971.675
194.4000,36.9117,971.974
194.3000,47.5634,972.761
194.2000,37.1184,972.665
194.1000,33.01,972.589
194.0000,17.471,972.308
193.9000,3.13967,971.85
193.8000,-8.7517,971.652
193.7000,-4.3012,971.928
193.6000,3.9295,972.059
193.5000,-4.24106,971.88
193.4000,11.8228,972.551
193.3000,22.0092,972.766
193.2000,32.4698,972.838
193.1000,37.7116,972.714
193.0000,41.0196,972.848
192.9000,35.0524,972.496
192.8000,16.5771,971.87
192.7000,11.1568,971.451
192.6000,-9.41367,970.707
192.5000,-34.3126,969.987
192.4000,-51.974,969.401
192.3000,-53.9102,969.276
192.2000,-47.6729,969.339
192.1000,-43.1161,969.494
192.0000,-28.3761,969.707
191.9000,-17.7732,970.008
191.8000,-3.24513,970.365
191.7000,4.43862,970.247
191.6000,2.98586,970.096
191.5000,-1.02284,970.032
191.4000,-2.76096,969.959
191.3000,-2.22708,969.983
191.2000,6.51366,969.917
191.1000,9.00932,931.474
191.0000,8.24971,937.914
190.9000,14.2678,946.737
190.8000,20.4376,955.353
190.7000,27.9051,964.177
190.6000,26.8062,972.529
190.5000,17.9751,980.702
190.4000,-2.86022,988.347
190.3000,-13.1935,1027.32
190.2000,-12.5806,1040.15
190.1000,-24.2745,1039.8
190.0000,-33.6013,1039.5

##### Extended Information
[Comments]
Sample name,Dl121-D116M lit 2
Comment,lit
User
Division
Company,UT Southwestern Medical Center at Dallas

[Detailed Information]
Creation date,2/14/2023 1:04 PM

Data array type,Linear data array * 2
Horizontal axis,Wavelength [nm]
Vertical axis(1),CD [mdeg]
Vertical axis(2),HT [V]
Start,260 nm
End,190 nm
Data interval,0.1 nm
Data points,701     

[Measurement Information]
Instrument name,Jasco CD
Model name,J-815
Serial No.,B064061168

Accessory,CDF-426S
Accessory S/N,A00861183
  Temperature,14.99 C
  Control sonsor,Holder
  Monitor sensor,Holder
  Start Mode,Keep target temperature +/-0.10 deg C while 5 seconds
  Cell length,10 mm

Measurement date,2/14/2023 1:04 PM

Photometric mode,CD, HT
Measure range,260 - 190 nm
Data pitch,0.1 nm
Sensitivity,Standard
D.I.T.,1 sec
Bandwidth,1.00 nm
Start mode,Immediately
Scanning speed,50 nm/min
Baseline correction,None
Shutter control,Manual
CD detector,PMT
PMT voltage,Auto
No. of cycle,1/3

Concentration,0.94 (w/v)%

