TITLE,Dl121-D116M dark
DATA TYPE,
ORIGIN,JASCO
OWNER,
DATE,23/02/14
TIME,11:55:36
SPECTROMETER/DATA SYSTEM,
LOCALE,1033
RESOLUTION,
DELTAX,-0.1
XUNITS,NANOMETERS
YUNITS,CD [mdeg]
Y2UNITS,HT [V]
FIRSTX,  260.0000
LASTX,  190.0000
NPOINTS,     701
FIRSTY,    -0.40707
MAXY,    86.12925
MINY,   -92.91354
XYDATA
260.0000,-0.407071,284.41
259.9000,-0.320404,284.445
259.8000,-0.235333,284.484
259.7000,-0.250696,284.534
259.6000,-0.256546,284.575
259.5000,-0.162369,284.619
259.4000,-0.151318,284.662
259.3000,-0.121323,284.695
259.2000,-0.113834,284.732
259.1000,-0.223807,284.774
259.0000,-0.263809,284.808
258.9000,-0.263803,284.843
258.8000,-0.207349,284.884
258.7000,-0.270813,284.908
258.6000,-0.352298,284.931
258.5000,-0.427451,284.969
258.4000,-0.483527,284.994
258.3000,-0.392899,285.022
258.2000,-0.313086,285.061
258.1000,-0.280621,285.083
258.0000,-0.281259,285.111
257.9000,-0.286737,285.146
257.8000,-0.217114,285.177
257.7000,-0.208594,285.205
257.6000,-0.234366,285.239
257.5000,-0.401413,285.252
257.4000,-0.505914,285.264
257.3000,-0.522284,285.288
257.2000,-0.527661,285.312
257.1000,-0.508234,285.327
257.0000,-0.552072,285.345
256.9000,-0.528217,285.371
256.8000,-0.521832,285.385
256.7000,-0.473483,285.414
256.6000,-0.361331,285.446
256.5000,-0.344113,285.462
256.4000,-0.296948,285.487
256.3000,-0.22468,285.52
256.2000,-0.18703,285.553
256.1000,-0.212973,285.579
256.0000,-0.137827,285.609
255.9000,-0.0668671,285.639
255.8000,-0.116269,285.654
255.7000,-0.194861,285.679
255.6000,-0.293347,285.714
255.5000,-0.430115,285.733
255.4000,-0.490176,285.76
255.3000,-0.424649,285.792
255.2000,-0.410641,285.82
255.1000,-0.419171,285.846
255.0000,-0.36174,285.882
254.9000,-0.310306,285.911
254.8000,-0.231821,285.937
254.7000,-0.0866699,285.969
254.6000,-0.0333893,286.007
254.5000,-0.155978,286.042
254.4000,-0.284463,286.075
254.3000,-0.400235,286.105
254.2000,-0.553772,286.129
254.1000,-0.637973,286.164
254.0000,-0.818671,286.194
253.9000,-0.935577,286.228
253.8000,-1.02502,286.26
253.7000,-0.99039,286.287
253.6000,-0.897974,286.319
253.5000,-0.863168,286.36
253.4000,-0.777158,286.404
253.3000,-0.751675,286.448
253.2000,-0.643378,286.492
253.1000,-0.586517,286.543
253.0000,-0.566547,286.581
252.9000,-0.555624,286.613
252.8000,-0.553397,286.653
252.7000,-0.495703,286.675
252.6000,-0.434369,286.701
252.5000,-0.376901,286.73
252.4000,-0.364389,286.757
252.3000,-0.329343,286.778
252.2000,-0.353476,286.796
252.1000,-0.340048,286.832
252.0000,-0.274567,286.853
251.9000,-0.211154,286.877
251.8000,-0.0972534,286.92
251.7000,-0.105521,286.95
251.6000,-0.0964081,286.989
251.5000,-0.149585,287.022
251.4000,-0.0717377,287.069
251.3000,0.0195007,287.103
251.2000,0.00596619,287.151
251.1000,-0.0719666,287.195
251.0000,-0.150201,287.228
250.9000,-0.182159,287.276
250.8000,-0.214154,287.31
250.7000,-0.223199,287.345
250.6000,-0.30524,287.374
250.5000,-0.412213,287.401
250.4000,-0.458521,287.429
250.3000,-0.521884,287.453
250.2000,-0.615839,287.488
250.1000,-0.67821,287.526
250.0000,-0.764789,287.564
249.9000,-0.791241,287.602
249.8000,-0.742142,287.647
249.7000,-0.648471,287.713
249.6000,-0.577429,287.763
249.5000,-0.550299,287.817
249.4000,-0.562708,287.864
249.3000,-0.602444,287.898
249.2000,-0.545221,287.932
249.1000,-0.526978,287.976
249.0000,-0.570923,288.024
248.9000,-0.696591,288.049
248.8000,-0.787979,288.091
248.7000,-0.814816,288.138
248.6000,-0.794955,288.178
248.5000,-0.796091,288.238
248.4000,-0.810437,288.286
248.3000,-0.860709,288.346
248.2000,-0.811191,288.408
248.1000,-0.65246,288.476
248.0000,-0.585934,288.537
247.9000,-0.652698,288.593
247.8000,-0.73205,288.656
247.7000,-0.78511,288.703
247.6000,-0.914917,288.774
247.5000,-0.924045,288.825
247.4000,-0.943384,288.871
247.3000,-1.08166,288.924
247.2000,-1.23707,288.984
247.1000,-1.33607,289.036
247.0000,-1.28691,289.092
246.9000,-1.24666,289.177
246.8000,-1.21731,289.251
246.7000,-1.22105,289.323
246.6000,-1.27585,289.409
246.5000,-1.38462,289.493
246.4000,-1.50808,289.577
246.3000,-1.52372,289.668
246.2000,-1.57878,289.77
246.1000,-1.67368,289.858
246.0000,-1.74206,289.942
245.9000,-1.80768,290.025
245.8000,-1.89024,290.103
245.7000,-1.91707,290.2
245.6000,-1.89304,290.285
245.5000,-1.89812,290.37
245.4000,-1.92782,290.453
245.3000,-1.91866,290.53
245.2000,-1.88699,290.619
245.1000,-1.89747,290.721
245.0000,-1.93078,290.825
244.9000,-1.91829,290.922
244.8000,-1.89299,291.007
244.7000,-1.90155,291.108
244.6000,-1.94314,291.201
244.5000,-2.0557,291.301
244.4000,-2.21765,291.403
244.3000,-2.33851,291.489
244.2000,-2.4088,291.594
244.1000,-2.45898,291.712
244.0000,-2.63615,291.832
243.9000,-2.75541,291.952
243.8000,-2.7978,292.08
243.7000,-2.84119,292.198
243.6000,-2.80772,292.313
243.5000,-2.71792,292.444
243.4000,-2.75791,292.58
243.3000,-2.8257,292.705
243.2000,-2.94271,292.827
243.1000,-3.00439,292.959
243.0000,-3.06198,293.097
242.9000,-3.24018,293.245
242.8000,-3.41518,293.399
242.7000,-3.66407,293.555
242.6000,-3.77416,293.716
242.5000,-3.82099,293.877
242.4000,-3.88212,294.044
242.3000,-3.95444,294.208
242.2000,-4.0851,294.369
242.1000,-4.12218,294.531
242.0000,-4.12372,294.697
241.9000,-4.0765,294.866
241.8000,-4.15038,295.029
241.7000,-4.19686,295.189
241.6000,-4.19326,295.35
241.5000,-4.13112,295.526
241.4000,-4.26564,295.699
241.3000,-4.40824,295.869
241.2000,-4.55842,296.063
241.1000,-4.75871,296.263
241.0000,-4.8562,296.464
240.9000,-4.97146,296.666
240.8000,-5.14472,296.876
240.7000,-5.42944,297.09
240.6000,-5.5865,297.309
240.5000,-5.58694,297.54
240.4000,-5.61491,297.772
240.3000,-5.71331,298.001
240.2000,-5.86309,298.243
240.1000,-6.05822,298.489
240.0000,-6.22737,298.752
239.9000,-6.43594,299.024
239.8000,-6.53145,299.289
239.7000,-6.71709,299.562
239.6000,-6.95737,299.848
239.5000,-7.10649,300.138
239.4000,-7.20765,300.435
239.3000,-7.37128,300.751
239.2000,-7.52785,301.062
239.1000,-7.60107,301.365
239.0000,-7.78993,301.678
238.9000,-7.95319,301.996
238.8000,-8.10058,302.322
238.7000,-8.24869,302.659
238.6000,-8.4826,302.993
238.5000,-8.7445,303.334
238.4000,-8.89606,303.687
238.3000,-9.08939,304.05
238.2000,-9.14902,304.416
238.1000,-9.35046,304.804
238.0000,-9.50863,305.2
237.9000,-9.6582,305.589
237.8000,-9.80675,305.986
237.7000,-9.91501,306.385
237.6000,-10.1345,306.791
237.5000,-10.4777,307.208
237.4000,-10.8961,307.636
237.3000,-11.2031,308.076
237.2000,-11.4365,308.528
237.1000,-11.7017,308.983
237.0000,-11.94,309.452
236.9000,-12.1511,309.931
236.8000,-12.229,310.416
236.7000,-12.4046,310.9
236.6000,-12.4916,311.402
236.5000,-12.6534,311.912
236.4000,-12.9363,312.423
236.3000,-13.2143,312.948
236.2000,-13.5846,313.493
236.1000,-13.9103,314.034
236.0000,-14.272,314.587
235.9000,-14.4637,315.163
235.8000,-14.6028,315.761
235.7000,-14.8349,316.349
235.6000,-15.1303,316.949
235.5000,-15.3935,317.548
235.4000,-15.5852,318.157
235.3000,-15.8501,318.776
235.2000,-16.1633,319.412
235.1000,-16.4824,320.066
235.0000,-16.9202,320.717
234.9000,-17.3967,321.375
234.8000,-17.7514,322.047
234.7000,-18.1533,322.733
234.6000,-18.5594,323.43
234.5000,-18.8531,324.133
234.4000,-19.16,324.857
234.3000,-19.5493,325.574
234.2000,-19.8109,326.315
234.1000,-19.9828,327.071
234.0000,-20.2113,327.828
233.9000,-20.366,328.6
233.8000,-20.3566,329.393
233.7000,-20.6505,330.192
233.6000,-20.8437,330.986
233.5000,-21.0968,331.799
233.4000,-21.4937,332.606
233.3000,-22.0288,333.409
233.2000,-22.416,334.243
233.1000,-22.597,335.098
233.0000,-22.9868,335.94
232.9000,-23.4132,336.783
232.8000,-23.7624,337.642
232.7000,-24.1664,338.509
232.6000,-24.4787,339.364
232.5000,-24.7558,340.23
232.4000,-25.0832,341.094
232.3000,-25.4883,341.947
232.2000,-25.9183,342.812
232.1000,-26.1462,343.698
232.0000,-26.4682,344.588
231.9000,-26.8525,345.478
231.8000,-27.0706,346.384
231.7000,-27.4457,347.293
231.6000,-27.6517,348.222
231.5000,-27.8937,349.162
231.4000,-28.2204,350.108
231.3000,-28.6732,351.057
231.2000,-29.0089,352.021
231.1000,-29.191,352.992
231.0000,-29.4211,353.952
230.9000,-29.6788,354.925
230.8000,-30.0465,355.899
230.7000,-30.4992,356.865
230.6000,-31.1002,357.824
230.5000,-31.7995,358.763
230.4000,-32.5338,359.696
230.3000,-33.1546,360.625
230.2000,-33.7801,361.547
230.1000,-34.2805,362.48
230.0000,-34.8019,363.387
229.9000,-35.2571,364.287
229.8000,-35.7728,365.182
229.7000,-36.0095,366.1
229.6000,-36.3365,367.022
229.5000,-36.5218,367.93
229.4000,-36.999,368.839
229.3000,-37.3015,369.763
229.2000,-37.6335,370.69
229.1000,-37.9603,371.625
229.0000,-38.1939,372.581
228.9000,-38.5325,373.521
228.8000,-38.8036,374.455
228.7000,-39.251,375.39
228.6000,-39.8257,376.332
228.5000,-40.5826,377.248
228.4000,-41.2443,378.161
228.3000,-42.0152,379.059
228.2000,-42.5235,379.963
228.1000,-42.8798,380.863
228.0000,-43.2906,381.749
227.9000,-43.648,382.633
227.8000,-43.9187,383.501
227.7000,-44.0725,384.372
227.6000,-44.4979,385.245
227.5000,-44.7912,386.119
227.4000,-45.238,386.989
227.3000,-45.8237,387.841
227.2000,-46.4637,388.703
227.1000,-47.0321,389.552
227.0000,-47.5699,390.399
226.9000,-48.2632,391.238
226.8000,-48.6935,392.078
226.7000,-49.1469,392.914
226.6000,-49.6935,393.739
226.5000,-50.2042,394.566
226.4000,-50.9745,395.384
226.3000,-51.5603,396.213
226.2000,-52.2169,397.06
226.1000,-52.6373,397.909
226.0000,-53.2855,398.752
225.9000,-53.8215,399.608
225.8000,-54.2443,400.455
225.7000,-54.8769,401.287
225.6000,-54.8878,402.153
225.5000,-55.0393,402.99
225.4000,-55.0464,403.802
225.3000,-55.3114,404.628
225.2000,-55.3777,405.446
225.1000,-55.5613,406.24
225.0000,-55.9906,407.038
224.9000,-56.3293,407.862
224.8000,-56.9044,408.652
224.7000,-57.5431,409.44
224.6000,-58.162,410.263
224.5000,-58.822,411.072
224.4000,-59.3271,411.873
224.3000,-59.8231,412.694
224.2000,-60.3375,413.508
224.1000,-60.7351,414.294
224.0000,-60.9679,415.106
223.9000,-61.2701,415.922
223.8000,-61.9036,416.719
223.7000,-62.3465,417.518
223.6000,-62.9563,418.33
223.5000,-63.5949,419.109
223.4000,-63.928,419.9
223.3000,-64.0307,420.71
223.2000,-64.1042,421.509
223.1000,-64.2916,422.302
223.0000,-64.3926,423.111
222.9000,-64.3585,423.933
222.8000,-64.3873,424.743
222.7000,-64.6449,425.565
222.6000,-65.1436,426.365
222.5000,-65.5336,427.182
222.4000,-65.9466,428
222.3000,-65.993,428.827
222.2000,-66.1439,429.668
222.1000,-66.398,430.484
222.0000,-66.5048,431.298
221.9000,-66.6396,432.124
221.8000,-66.8439,432.953
221.7000,-67.1965,433.779
221.6000,-67.3699,434.612
221.5000,-67.8103,435.428
221.4000,-68.351,436.229
221.3000,-68.5918,437.017
221.2000,-69.1897,437.818
221.1000,-69.6673,438.615
221.0000,-69.7137,439.413
220.9000,-69.7464,440.229
220.8000,-70.0247,441.031
220.7000,-70.3963,441.847
220.6000,-70.8339,442.666
220.5000,-70.9518,443.502
220.4000,-71.2811,444.312
220.3000,-71.5797,445.132
220.2000,-71.8136,445.974
220.1000,-71.829,446.832
220.0000,-71.8652,447.699
219.9000,-71.5879,448.556
219.8000,-71.1074,449.414
219.7000,-70.975,450.285
219.6000,-70.8795,451.16
219.5000,-70.0022,452.072
219.4000,-69.2151,452.971
219.3000,-68.8421,453.848
219.2000,-68.3052,454.72
219.1000,-68.5203,455.553
219.0000,-69.2591,456.385
218.9000,-69.6328,457.21
218.8000,-69.7047,458.059
218.7000,-69.902,458.905
218.6000,-70.4126,459.731
218.5000,-70.6014,460.576
218.4000,-70.7737,461.41
218.3000,-71.0916,462.274
218.2000,-70.85,463.161
218.1000,-70.6042,464.046
218.0000,-70.1512,464.947
217.9000,-69.5228,465.835
217.8000,-69.0633,466.721
217.7000,-68.7012,467.612
217.6000,-69.0608,468.499
217.5000,-69.1804,469.387
217.4000,-68.63,470.306
217.3000,-68.1805,471.229
217.2000,-68.4812,472.134
217.1000,-68.9572,473.05
217.0000,-69.5328,474
216.9000,-69.59,474.979
216.8000,-69.7207,475.959
216.7000,-69.3177,476.961
216.6000,-68.8024,477.98
216.5000,-68.5822,479.011
216.4000,-68.1965,480.063
216.3000,-67.8065,481.131
216.2000,-67.3792,482.204
216.1000,-67.1222,483.295
216.0000,-67.0196,484.395
215.9000,-67.0918,485.509
215.8000,-67.0557,486.63
215.7000,-67.5214,487.757
215.6000,-68.2184,488.87
215.5000,-68.9639,490.016
215.4000,-69.8267,491.168
215.3000,-70.3941,492.324
215.2000,-70.3796,493.523
215.1000,-69.9783,494.742
215.0000,-70.0584,495.958
214.9000,-70.4386,497.177
214.8000,-69.9185,498.454
214.7000,-69.2475,499.728
214.6000,-68.7019,501.029
214.5000,-67.3626,502.38
214.4000,-66.7138,503.71
214.3000,-66.5642,505.046
214.2000,-66.3037,506.411
214.1000,-65.7017,507.809
214.0000,-65.7359,509.211
213.9000,-65.5152,510.678
213.8000,-65.4076,512.146
213.7000,-65.8827,513.605
213.6000,-66.9821,515.08
213.5000,-67.5603,516.601
213.4000,-67.0506,518.176
213.3000,-66.9157,519.774
213.2000,-66.4173,521.402
213.1000,-66.7656,523.026
213.0000,-66.96,524.676
212.9000,-66.2572,526.371
212.8000,-64.9338,528.099
212.7000,-63.7128,529.855
212.6000,-63.4265,531.608
212.5000,-63.2465,533.37
212.4000,-63.0552,535.169
212.3000,-62.3543,536.991
212.2000,-61.7196,538.831
212.1000,-61.3719,540.696
212.0000,-62.4091,542.566
211.9000,-63.5629,544.459
211.8000,-63.7658,546.42
211.7000,-64.152,548.422
211.6000,-64.7298,550.45
211.5000,-65.8394,552.493
211.4000,-65.4361,554.606
211.3000,-65.1042,556.759
211.2000,-64.6816,558.954
211.1000,-64.1756,561.193
211.0000,-64.0163,563.44
210.9000,-63.4071,565.739
210.8000,-63.3362,568.043
210.7000,-62.1175,570.409
210.6000,-61.7854,572.808
210.5000,-62.3332,575.231
210.4000,-62.9956,577.668
210.3000,-63.6863,580.139
210.2000,-64.4613,582.644
210.1000,-65.2214,585.192
210.0000,-64.4735,587.847
209.9000,-64.8289,590.521
209.8000,-64.1249,593.262
209.7000,-63.3,596.074
209.6000,-61.4633,598.986
209.5000,-59.9418,601.968
209.4000,-59.664,604.987
209.3000,-59.0546,608.077
209.2000,-58.8495,611.195
209.1000,-58.4838,614.397
209.0000,-58.5192,617.639
208.9000,-58.8218,620.904
208.8000,-60.4878,624.161
208.7000,-61.1839,627.49
208.6000,-61.3769,630.886
208.5000,-60.7769,634.391
208.4000,-60.3768,637.961
208.3000,-59.5547,641.607
208.2000,-59.0994,645.306
208.1000,-59.7877,649.055
208.0000,-60.1398,652.895
207.9000,-60.1696,656.823
207.8000,-60.5364,660.81
207.7000,-61.3019,664.848
207.6000,-62.6066,668.905
207.5000,-63.7422,673.001
207.4000,-63.0954,677.247
207.3000,-60.5488,681.644
207.2000,-57.091,686.16
207.1000,-55.5157,690.666
207.0000,-53.4671,695.249
206.9000,-49.1702,699.929
206.8000,-45.2948,704.727
206.7000,-44.0479,709.542
206.6000,-41.6219,714.419
206.5000,-43.099,719.215
206.4000,-46.4067,723.985
206.3000,-45.7876,729.009
206.2000,-44.9946,734.097
206.1000,-45.5884,739.21
206.0000,-49.0135,744.214
205.9000,-53.1158,749.221
205.8000,-53.7897,754.394
205.7000,-47.8862,759.817
205.6000,-39.9067,765.323
205.5000,-37.486,770.598
205.4000,-36.3484,775.845
205.3000,-32.3577,781.166
205.2000,-29.6128,786.48
205.1000,-26.1189,791.851
205.0000,-25.2114,797.096
204.9000,-27.3222,802.225
204.8000,-30.7172,807.24
204.7000,-30.5501,812.379
204.6000,-27.77,817.571
204.5000,-32.7127,822.429
204.4000,-37.4008,827.296
204.3000,-36.6861,832.215
204.2000,-39.0069,836.898
204.1000,-35.8531,841.641
204.0000,-37.777,846.23
203.9000,-47.4999,850.417
203.8000,-52.6767,854.666
203.7000,-46.1982,859.276
203.6000,-42.7058,863.608
203.5000,-41.285,867.759
203.4000,-33.7514,872.009
203.3000,-37.505,875.78
203.2000,-34.5732,879.625
203.1000,-17.667,883.806
203.0000,-7.39563,887.643
202.9000,-4.7141,891.051
202.8000,4.5325,894.524
202.7000,19.1654,898.087
202.6000,33.5928,901.502
202.5000,46.715,904.702
202.4000,53.141,907.6
202.3000,50.1264,910.114
202.2000,54.0018,912.674
202.1000,49.0058,914.72
202.0000,41.1191,916.592
201.9000,22.8118,918.022
201.8000,-5.17271,919.089
201.7000,-23.1665,918.928
201.6000,-33.3136,886.446
201.5000,-27.9376,894.811
201.4000,-36.6846,904.104
201.3000,-39.6262,913.582
201.2000,-30.2793,923.258
201.1000,-20.658,932.681
201.0000,-1.95335,942.183
200.9000,7.17722,951.176
200.8000,1.4826,990.609
200.7000,-9.45969,998.803
200.6000,-20.1803,998.551
200.5000,-32.5371,997.815
200.4000,-49.7385,996.877
200.3000,-59.9513,996.179
200.2000,-65.5504,995.504
200.1000,-75.7487,994.657
200.0000,-74.374,994.186
199.9000,-61.1166,993.983
199.8000,-51.4298,993.879
199.7000,-50.5648,993.505
199.6000,-36.2485,993.555
199.5000,-37.8432,993.087
199.4000,-42.1775,992.545
199.3000,-46.7055,992.225
199.2000,-40.3994,992.106
199.1000,-33.0602,991.345
199.0000,-29.9322,970.385
198.9000,-7.2592,975.057
198.8000,12.1945,980.688
198.7000,16.2337,986.003
198.6000,10.206,991.076
198.5000,-3.98349,995.966
198.4000,6.49055,1001.75
198.3000,-1.31532,1006.94
198.2000,-1.84779,1033.44
198.1000,-18.7511,1036.31
198.0000,-25.9593,1036.56
197.9000,-21.2092,1036.99
197.8000,-9.19357,1037.39
197.7000,15.7944,1038.3
197.6000,16.5966,1038.25
197.5000,5.39439,1037.91
197.4000,-2.33091,1037.61
197.3000,13.9039,1037.96
197.2000,7.78147,1037.61
197.1000,3.04551,1037.32
197.0000,9.04155,1037.27
196.9000,9.55586,1037.17
196.8000,17.5239,1037.17
196.7000,18.5253,1036.83
196.6000,15.3521,1036.33
196.5000,-11.3168,1035.13
196.4000,-33.2939,1033.91
196.3000,-39.2015,1033.25
196.2000,-51.4536,1032.38
196.1000,-59.1847,1031.47
196.0000,-65.2821,1030.75
195.9000,-61.0461,1030.26
195.8000,-56.2086,1029.83
195.7000,-43.636,1029.51
195.6000,-19.3021,1029.75
195.5000,3.22606,1029.57
195.4000,20.836,1029.18
195.3000,34.5871,1028.89
195.2000,47.6863,1028.5
195.1000,50.088,1027.7
195.0000,56.6987,1027.11
194.9000,55.1529,1026.31
194.8000,40.2968,1024.99
194.7000,26.9727,1023.74
194.6000,18.1659,1022.68
194.5000,8.31462,1021.46
194.4000,-26.36,1019.6
194.3000,-44.7359,1018.15
194.2000,-71.3418,1016.44
194.1000,-86.7712,1015.09
194.0000,-92.9135,1014.24
193.9000,-83.4474,1013.89
193.8000,-82.3582,1013.25
193.7000,-86.0228,1012.52
193.6000,-77.9077,1012.16
193.5000,-63.3699,1012.1
193.4000,-53.2471,1011.8
193.3000,-41.5032,1011.53
193.2000,-12.7379,1011.77
193.1000,-6.98415,1011.12
193.0000,-10.3954,1010.35
192.9000,-9.95616,1009.75
192.8000,-4.77498,1009.24
192.7000,2.58235,1008.79
192.6000,-1.62957,1008.05
192.5000,12.3883,1007.79
192.4000,1.42302,1006.73
192.3000,-2.43747,1006.09
192.2000,-2.88663,1005.57
192.1000,1.68224,1004.97
192.0000,-0.926703,1004.21
191.9000,6.56994,1004
191.8000,31.9072,1004.17
191.7000,45.0744,1004.13
191.6000,60.9792,1004.3
191.5000,62.3301,1003.72
191.4000,55.0361,1002.94
191.3000,39.2392,1002.07
191.2000,20.3022,1001.17
191.1000,3.74027,1000.14
191.0000,-8.75681,999.302
190.9000,-9.28254,998.879
190.8000,-12.4649,998.428
190.7000,-10.0298,997.731
190.6000,13.0714,998.104
190.5000,28.1624,998.174
190.4000,48.3955,998.344
190.3000,70.2455,998.554
190.2000,86.1292,998.526
190.1000,80.0315,997.795
190.0000,75.0951,997.091

##### Extended Information
[Comments]
Sample name,Dl121-D116M dark
Comment,dark
User
Division
Company,UT Southwestern Medical Center at Dallas

[Detailed Information]
Creation date,2/14/2023 12:55 PM

Data array type,Linear data array * 2
Horizontal axis,Wavelength [nm]
Vertical axis(1),CD [mdeg]
Vertical axis(2),HT [V]
Start,260 nm
End,190 nm
Data interval,0.1 nm
Data points,701     

[Measurement Information]
Instrument name,Jasco CD
Model name,J-815
Serial No.,B064061168

Accessory,CDF-426S
Accessory S/N,A00861183
  Temperature,14.98 C
  Control sonsor,Holder
  Monitor sensor,Holder
  Start Mode,Keep target temperature +/-0.10 deg C while 5 seconds
  Cell length,10 mm

Measurement date,2/14/2023 12:55 PM

Photometric mode,CD, HT
Measure range,260 - 190 nm
Data pitch,0.1 nm
Sensitivity,Standard
D.I.T.,1 sec
Bandwidth,1.00 nm
Start mode,Immediately
Scanning speed,50 nm/min
Baseline correction,None
Shutter control,Manual
CD detector,PMT
PMT voltage,Auto
No. of cycle,2/3

Concentration,0.94 (w/v)%

