TITLE,Dl121-D116M lit
DATA TYPE,
ORIGIN,JASCO
OWNER,
DATE,23/02/14
TIME,12:00:47
SPECTROMETER/DATA SYSTEM,
LOCALE,1033
RESOLUTION,
DELTAX,-0.1
XUNITS,NANOMETERS
YUNITS,CD [mdeg]
Y2UNITS,HT [V]
FIRSTX,  260.0000
LASTX,  190.0000
NPOINTS,     701
FIRSTY,     0.30229
MAXY,    71.11651
MINY,   -94.70840
XYDATA
260.0000,0.302295,283.035
259.9000,0.266162,283.075
259.8000,0.264368,283.12
259.7000,0.316315,283.181
259.6000,0.331656,283.234
259.5000,0.363828,283.279
259.4000,0.319339,283.334
259.3000,0.260269,283.381
259.2000,0.197107,283.43
259.1000,0.214386,283.485
259.0000,0.280307,283.54
258.9000,0.376575,283.591
258.8000,0.3892,283.642
258.7000,0.301367,283.689
258.6000,0.351282,283.74
258.5000,0.503302,283.8
258.4000,0.526486,283.841
258.3000,0.444574,283.881
258.2000,0.393597,283.934
258.1000,0.219745,283.969
258.0000,0.0863647,284.01
257.9000,-0.009375,284.051
257.8000,-0.0622192,284.087
257.7000,-0.163257,284.119
257.6000,-0.215878,284.149
257.5000,-0.153406,284.176
257.4000,-0.0977264,284.204
257.3000,-0.0487488,284.239
257.2000,-0.0480927,284.269
257.1000,-0.0705292,284.312
257.0000,-0.0492554,284.355
256.9000,-0.109897,284.385
256.8000,-0.108493,284.417
256.7000,-0.175729,284.453
256.6000,-0.238483,284.484
256.5000,-0.229141,284.518
256.4000,-0.215271,284.555
256.3000,-0.142221,284.58
256.2000,-0.0981873,284.605
256.1000,-0.00831909,284.657
256.0000,0.00611877,284.701
255.9000,-0.016748,284.739
255.8000,0.0187164,284.777
255.7000,0.0907471,284.827
255.6000,0.111798,284.878
255.5000,0.0846069,284.934
255.4000,0.118878,284.995
255.3000,0.100916,285.024
255.2000,0.117007,285.065
255.1000,0.0934265,285.105
255.0000,0.0725861,285.151
254.9000,-0.017572,285.191
254.8000,-0.0822174,285.231
254.7000,0.013205,282.647
254.6000,0.0899048,280.113
254.5000,0.157541,279.63
254.4000,0.253137,279.659
254.3000,0.313644,279.705
254.2000,0.377292,279.755
254.1000,0.386728,279.795
254.0000,0.428369,279.831
253.9000,0.395377,281.581
253.8000,0.300235,284.26
253.7000,0.236362,285.648
253.6000,0.165161,285.708
253.5000,0.0933228,285.755
253.4000,0.0791901,285.777
253.3000,0.0981964,285.815
253.2000,0.0629059,285.857
253.1000,0.018692,285.896
253.0000,0.0719757,285.929
252.9000,0.0376801,285.967
252.8000,-0.118246,286
252.7000,-0.193649,286.034
252.6000,-0.295767,286.073
252.5000,-0.48075,286.118
252.4000,-0.620212,286.158
252.3000,-0.678989,286.196
252.2000,-0.760184,286.242
252.1000,-0.79191,286.286
252.0000,-0.782553,286.333
251.9000,-0.772147,286.374
251.8000,-0.72218,286.429
251.7000,-0.64538,286.485
251.6000,-0.510223,286.528
251.5000,-0.448788,286.568
251.4000,-0.424216,286.615
251.3000,-0.468188,286.654
251.2000,-0.461429,286.697
251.1000,-0.362735,286.738
251.0000,-0.281717,286.772
250.9000,-0.15943,286.814
250.8000,-0.0763031,286.856
250.7000,-0.155273,286.896
250.6000,-0.136978,286.937
250.5000,-0.0898224,286.975
250.4000,-0.104941,287.018
250.3000,-0.177744,287.072
250.2000,-0.284802,287.134
250.1000,-0.428485,287.186
250.0000,-0.544177,287.237
249.9000,-0.443399,287.297
249.8000,-0.387845,287.361
249.7000,-0.34418,287.418
249.6000,-0.344986,287.483
249.5000,-0.413284,287.54
249.4000,-0.375644,287.6
249.3000,-0.304749,287.659
249.2000,-0.275388,287.71
249.1000,-0.394885,287.769
249.0000,-0.549347,287.825
248.9000,-0.653125,287.884
248.8000,-0.786008,287.948
248.7000,-0.777075,288.01
248.6000,-0.786868,288.074
248.5000,-0.887662,288.142
248.4000,-0.967224,288.218
248.3000,-1.07587,288.283
248.2000,-1.0654,288.346
248.1000,-1.11211,288.412
248.0000,-1.11628,288.473
247.9000,-1.08647,288.536
247.8000,-1.10032,288.597
247.7000,-1.13596,288.655
247.6000,-1.15347,288.715
247.5000,-1.11996,288.777
247.4000,-1.05539,288.837
247.3000,-1.00701,288.898
247.2000,-0.993265,288.984
247.1000,-1.05941,289.059
247.0000,-1.14778,289.133
246.9000,-1.16545,289.216
246.8000,-1.14668,289.297
246.7000,-1.20735,289.377
246.6000,-1.26648,289.469
246.5000,-1.36602,289.571
246.4000,-1.42238,289.673
246.3000,-1.41382,289.775
246.2000,-1.2834,288.154
246.1000,-1.12335,285.294
246.0000,-1.05902,283.696
245.9000,-1.07038,283.787
245.8000,-1.09999,283.891
245.7000,-1.20698,283.994
245.6000,-1.347,284.091
245.5000,-1.49147,284.185
245.4000,-1.68936,284.876
245.3000,-2.04277,288.116
245.2000,-2.37537,290.795
245.1000,-2.48094,291
245.0000,-2.60405,291.106
244.9000,-2.64659,291.207
244.8000,-2.66029,291.31
244.7000,-2.65718,291.418
244.6000,-2.62484,291.539
244.5000,-2.55484,291.653
244.4000,-2.44118,291.76
244.3000,-2.49759,291.874
244.2000,-2.54555,291.991
244.1000,-2.61142,292.117
244.0000,-2.74422,292.234
243.9000,-2.85488,292.361
243.8000,-2.99812,292.486
243.7000,-3.20347,292.613
243.6000,-3.32917,292.751
243.5000,-3.537,292.88
243.4000,-3.73591,293.005
243.3000,-3.88326,293.142
243.2000,-3.94537,293.3
243.1000,-3.9534,293.449
243.0000,-4.07948,293.589
242.9000,-4.15029,293.731
242.8000,-4.16134,293.88
242.7000,-4.14366,294.042
242.6000,-4.14326,294.221
242.5000,-4.18504,294.402
242.4000,-4.30678,294.577
242.3000,-4.42437,294.743
242.2000,-4.52896,294.916
242.1000,-4.56428,295.093
242.0000,-4.7494,295.27
241.9000,-5.00279,295.448
241.8000,-5.06547,295.632
241.7000,-5.10067,295.808
241.6000,-5.23727,295.982
241.5000,-5.27914,296.167
241.4000,-5.41138,296.364
241.3000,-5.51315,296.563
241.2000,-5.64987,296.763
241.1000,-5.64358,296.977
241.0000,-5.814,297.185
240.9000,-5.91343,297.391
240.8000,-5.95481,297.61
240.7000,-6.05008,297.835
240.6000,-6.19833,298.049
240.5000,-6.22431,298.287
240.4000,-6.34662,298.534
240.3000,-6.48783,298.774
240.2000,-6.59071,299.011
240.1000,-6.77012,299.265
240.0000,-6.99182,299.522
239.9000,-7.17364,299.781
239.8000,-7.38948,300.059
239.7000,-7.56938,300.333
239.6000,-7.71942,300.602
239.5000,-7.80543,300.893
239.4000,-7.90599,301.2
239.3000,-7.98113,301.51
239.2000,-8.19844,301.826
239.1000,-8.51353,302.145
239.0000,-8.73333,302.459
238.9000,-8.96934,302.771
238.8000,-9.14819,303.106
238.7000,-9.38983,303.443
238.6000,-9.51627,303.777
238.5000,-9.84198,304.109
238.4000,-10.1045,304.439
238.3000,-10.2036,304.781
238.2000,-10.258,305.144
238.1000,-10.2775,305.516
238.0000,-10.4122,305.909
237.9000,-10.594,306.298
237.8000,-10.8245,306.693
237.7000,-11.0662,306.674
237.6000,-10.6163,302.241
237.5000,-9.87005,298.667
237.4000,-9.52238,298.885
237.3000,-9.65355,299.354
237.2000,-9.93978,299.816
237.1000,-10.1623,300.272
237.0000,-10.4667,300.731
236.9000,-10.714,301.2
236.8000,-11.2687,305.512
236.7000,-12.2824,310.243
236.6000,-13.3069,312.167
236.5000,-13.7466,312.643
236.4000,-13.8969,313.139
236.3000,-14.0965,313.654
236.2000,-14.2348,314.191
236.1000,-14.3654,314.742
236.0000,-14.6803,315.294
235.9000,-14.993,315.874
235.8000,-15.2313,316.467
235.7000,-15.4729,317.077
235.6000,-15.7281,317.692
235.5000,-15.9935,318.316
235.4000,-16.1681,318.948
235.3000,-16.4434,319.569
235.2000,-16.6457,320.199
235.1000,-16.9271,320.841
235.0000,-17.2227,321.494
234.9000,-17.4855,322.15
234.8000,-17.7402,322.823
234.7000,-18.0951,323.497
234.6000,-18.5036,324.181
234.5000,-18.8038,324.897
234.4000,-19.1203,325.633
234.3000,-19.1813,326.381
234.2000,-19.179,327.125
234.1000,-19.2759,327.882
234.0000,-19.4307,328.646
233.9000,-19.5173,329.419
233.8000,-19.8137,330.199
233.7000,-20.2374,330.975
233.6000,-20.4897,331.753
233.5000,-20.6955,332.544
233.4000,-21.1215,333.335
233.3000,-21.5774,334.152
233.2000,-22.0191,334.974
233.1000,-22.4562,335.799
233.0000,-22.6724,336.637
232.9000,-22.7817,337.483
232.8000,-23.0494,338.346
232.7000,-23.3834,339.212
232.6000,-23.7675,340.093
232.5000,-24.0595,340.967
232.4000,-24.1939,341.839
232.3000,-24.4785,342.705
232.2000,-24.8086,343.589
232.1000,-25.1725,344.477
232.0000,-25.4289,345.361
231.9000,-25.6056,346.261
231.8000,-25.8039,347.163
231.7000,-25.9211,348.065
231.6000,-26.3023,348.983
231.5000,-26.678,349.917
231.4000,-27.1647,350.848
231.3000,-27.507,351.777
231.2000,-27.8705,352.724
231.1000,-28.2791,353.675
231.0000,-28.8038,354.609
230.9000,-29.3554,355.563
230.8000,-29.8853,356.509
230.7000,-30.2287,357.46
230.6000,-30.5773,358.396
230.5000,-30.8869,359.339
230.4000,-31.2481,360.272
230.3000,-31.5337,361.203
230.2000,-31.6746,362.126
230.1000,-31.8088,363.066
230.0000,-32.1002,363.991
229.9000,-32.3822,364.895
229.8000,-32.7066,365.8
229.7000,-33.0498,366.715
229.6000,-33.3928,367.635
229.5000,-33.9942,368.529
229.4000,-34.716,369.441
229.3000,-35.5115,370.352
229.2000,-35.9683,371.262
229.1000,-35.1727,361.295
229.0000,-32.4621,350.533
228.9000,-29.6792,346.86
228.8000,-28.6335,347.816
228.7000,-28.6724,348.794
228.6000,-28.8731,349.75
228.5000,-29.0524,350.686
228.4000,-29.2755,351.629
228.3000,-30.2207,356.574
228.2000,-33.3438,372.495
228.1000,-37.3602,381.501
228.0000,-39.7384,382.494
227.9000,-40.6084,383.369
227.8000,-40.931,384.243
227.7000,-41.4406,385.134
227.6000,-41.9836,386.01
227.5000,-42.3873,386.868
227.4000,-42.6315,387.732
227.3000,-42.787,388.612
227.2000,-43.0363,389.471
227.1000,-43.1111,390.337
227.0000,-43.7029,391.201
226.9000,-44.0473,392.061
226.8000,-44.5199,392.908
226.7000,-44.9269,393.75
226.6000,-45.6331,394.598
226.5000,-46.5427,395.429
226.4000,-47.0166,396.277
226.3000,-47.3797,397.124
226.2000,-47.5171,397.982
226.1000,-47.6344,398.849
226.0000,-47.5339,399.714
225.9000,-47.3435,400.59
225.8000,-47.456,401.483
225.7000,-47.6214,402.352
225.6000,-47.7884,403.213
225.5000,-48.2904,404.059
225.4000,-48.8092,404.888
225.3000,-49.225,405.716
225.2000,-49.6091,406.547
225.1000,-50.2998,407.373
225.0000,-50.8579,408.187
224.9000,-51.3926,408.995
224.8000,-51.5948,409.815
224.7000,-51.7452,410.638
224.6000,-52.1218,411.456
224.5000,-52.5097,412.269
224.4000,-52.9766,413.077
224.3000,-53.486,413.881
224.2000,-53.7253,414.713
224.1000,-53.8307,415.565
224.0000,-54.0244,416.41
223.9000,-54.6561,417.227
223.8000,-55.2036,418.045
223.7000,-55.4013,418.876
223.6000,-55.6031,419.706
223.5000,-55.536,420.552
223.4000,-55.4305,421.398
223.3000,-55.296,422.209
223.2000,-55.3045,423.017
223.1000,-55.6135,423.808
223.0000,-55.4739,424.627
222.9000,-55.7872,425.434
222.8000,-55.9704,426.244
222.7000,-56.4834,427.046
222.6000,-57.1666,427.832
222.5000,-57.5437,428.628
222.4000,-57.7724,429.432
222.3000,-57.5535,430.275
222.2000,-57.5829,431.131
222.1000,-57.9128,431.974
222.0000,-58.2263,432.805
221.9000,-58.6879,433.63
221.8000,-58.7836,434.458
221.7000,-58.9749,435.276
221.6000,-59.4565,436.1
221.5000,-59.8738,436.916
221.4000,-60.3585,437.709
221.3000,-60.4621,438.506
221.2000,-60.4142,439.331
221.1000,-60.4393,440.158
221.0000,-60.3996,440.977
220.9000,-60.2819,441.816
220.8000,-60.4537,442.65
220.7000,-60.8945,443.453
220.6000,-60.6678,440.915
220.5000,-56.3568,406.199
220.4000,-50.27,376.146
220.3000,-46.737,376.474
220.2000,-45.8018,377.396
220.1000,-46.1053,378.291
220.0000,-45.9228,379.194
219.9000,-45.2208,380.135
219.8000,-44.4761,381.119
219.7000,-47.4657,406.547
219.6000,-52.9874,448.902
219.5000,-57.5806,454.174
219.4000,-58.6295,455.018
219.3000,-58.3883,455.867
219.2000,-57.9027,456.726
219.1000,-58.5083,457.54
219.0000,-59.3635,458.326
218.9000,-59.7645,459.134
218.8000,-59.8683,459.983
218.7000,-60.2255,460.794
218.6000,-60.7113,461.62
218.5000,-60.8633,462.456
218.4000,-61.0497,463.3
218.3000,-60.713,464.158
218.2000,-60.6353,465.005
218.1000,-60.8848,465.833
218.0000,-61.499,466.659
217.9000,-61.5508,467.515
217.8000,-61.2584,468.376
217.7000,-61.4175,469.213
217.6000,-61.8242,470.043
217.5000,-62.4641,470.875
217.4000,-62.3636,471.756
217.3000,-62.4177,472.666
217.2000,-62.3908,473.599
217.1000,-62.1414,474.537
217.0000,-62.2732,475.473
216.9000,-62.478,476.445
216.8000,-62.1291,477.445
216.7000,-62.0332,478.453
216.6000,-62.4533,479.458
216.5000,-62.7162,480.477
216.4000,-62.6556,481.51
216.3000,-62.9945,482.532
216.2000,-64.0202,483.565
216.1000,-64.2066,484.627
216.0000,-64.6178,485.7
215.9000,-64.6251,486.803
215.8000,-64.1951,487.932
215.7000,-63.6029,489.087
215.6000,-63.0745,490.275
215.5000,-62.9014,491.473
215.4000,-61.7718,492.695
215.3000,-60.9608,493.931
215.2000,-60.662,495.154
215.1000,-60.1775,496.404
215.0000,-59.682,497.667
214.9000,-59.4703,498.936
214.8000,-59.2236,500.209
214.7000,-58.3548,501.492
214.6000,-57.8506,502.813
214.5000,-57.8652,504.122
214.4000,-57.4656,505.46
214.3000,-57.191,506.836
214.2000,-57.0794,508.225
214.1000,-56.5613,509.66
214.0000,-56.4648,511.09
213.9000,-57.1996,512.535
213.8000,-57.5414,513.997
213.7000,-57.3526,515.501
213.6000,-56.8155,517.056
213.5000,-56.6488,518.61
213.4000,-56.7053,520.188
213.3000,-57.7907,521.749
213.2000,-58.7074,523.34
213.1000,-58.8119,524.981
213.0000,-58.9284,526.627
212.9000,-59.2184,528.308
212.8000,-58.9233,530.002
212.7000,-58.7622,531.735
212.6000,-58.1781,533.518
212.5000,-57.6933,535.309
212.4000,-56.8526,537.149
212.3000,-56.5671,538.981
212.2000,-56.0129,540.879
212.1000,-55.7541,542.789
212.0000,-53.8363,517.615
211.9000,-49.2809,462.874
211.8000,-43.3941,419.282
211.7000,-39.9769,420.191
211.6000,-38.3544,422.383
211.5000,-35.7499,424.634
211.4000,-34.272,426.885
211.3000,-34.0628,429.123
211.2000,-35.3697,443.896
211.1000,-39.9898,497.234
211.0000,-45.7207,559.556
210.9000,-50.8088,568.791
210.8000,-52.5992,571.071
210.7000,-54.7529,573.323
210.6000,-56.3337,575.597
210.5000,-55.7155,577.986
210.4000,-54.5973,580.43
210.3000,-53.7491,582.892
210.2000,-53.971,585.31
210.1000,-53.4378,587.803
210.0000,-54.0462,590.307
209.9000,-53.8396,592.875
209.8000,-53.2257,595.53
209.7000,-54.195,598.185
209.6000,-56.2965,600.87
209.5000,-56.7537,603.661
209.4000,-57.1688,606.515
209.3000,-56.1328,609.477
209.2000,-55.7454,612.444
209.1000,-54.7932,615.458
209.0000,-53.5034,618.495
208.9000,-52.5803,621.549
208.8000,-49.365,624.692
208.7000,-48.9209,627.788
208.6000,-48.2786,630.931
208.5000,-48.6892,634.093
208.4000,-48.8113,637.299
208.3000,-49.1659,640.563
208.2000,-50.8631,643.802
208.1000,-51.0451,647.176
208.0000,-53.3445,650.541
207.9000,-54.632,653.953
207.8000,-52.4331,657.531
207.7000,-51.2385,661.177
207.6000,-52.4288,664.78
207.5000,-52.0728,668.475
207.4000,-49.7962,672.313
207.3000,-49.2389,676.137
207.2000,-48.3907,680.05
207.1000,-46.6208,684.08
207.0000,-48.4878,688.095
206.9000,-51.6376,692.073
206.8000,-53.1844,696.171
206.7000,-55.2441,700.371
206.6000,-55.1597,704.66
206.5000,-57.5118,708.926
206.4000,-56.7947,713.326
206.3000,-54.8589,717.882
206.2000,-51.5253,722.508
206.1000,-47.7649,727.214
206.0000,-42.2712,732.016
205.9000,-35.7106,736.794
205.8000,-34.6284,741.513
205.7000,-33.5754,746.208
205.6000,-36.2682,750.829
205.5000,-42.8471,755.283
205.4000,-49.8738,759.676
205.3000,-53.0465,764.151
205.2000,-61.4208,768.451
205.1000,-65.1473,772.882
205.0000,-63.6144,777.413
204.9000,-63.8011,781.925
204.8000,-58.4762,786.589
204.7000,-42.249,791.509
204.6000,-27.1869,796.401
204.5000,-18.7081,801.02
204.4000,-2.64945,805.808
204.3000,12.47,810.575
204.2000,1.89399,814.448
204.1000,-1.99539,818.444
204.0000,-9.4152,822.274
203.9000,-19.0104,825.945
203.8000,-21.7645,829.748
203.7000,-21.8385,833.544
203.6000,-19.0527,837.393
203.5000,-27.2643,823.672
203.4000,-25.2755,748.803
203.3000,-15.0265,655.881
203.2000,-2.01902,586.098
203.1000,4.7106,593.268
203.0000,16.9061,604.987
202.9000,7.80814,614.1
202.8000,-2.39822,621.295
202.7000,-12.1682,630.883
202.6000,-23.3717,701.105
202.5000,-33.603,801.198
202.4000,-26.7249,903.52
202.3000,-17.5221,921.988
202.2000,-24.935,920.985
202.1000,-35.5874,921.144
202.0000,-43.5251,923.354
201.9000,-24.9922,927.262
201.8000,-22.3133,930.574
201.7000,-19.5636,933.791
201.6000,-27.1967,936.643
201.5000,-44.0887,939.036
201.4000,-61.8571,941.11
201.3000,-68.5561,943.3
201.2000,-60.2063,945.817
201.1000,-83.3828,946.912
201.0000,-94.7084,948.124
200.9000,-77.6367,949.802
200.8000,-64.9189,951.027
200.7000,-74.9022,951.162
200.6000,-67.5295,951.707
200.5000,-66.2521,951.54
200.4000,-71.858,951.132
200.3000,-69.4419,950.603
200.2000,-62.9817,949.923
200.1000,-55.8327,949.195
200.0000,-70.4788,947.593
199.9000,-74.2068,946.232
199.8000,-71.7064,944.482
199.7000,-59.6405,943.157
199.6000,-43.7202,942.047
199.5000,-38.7305,940.6
199.4000,-32.2662,939.325
199.3000,-38.5656,937.551
199.2000,-36.7685,936.296
199.1000,-27.1802,935.186
199.0000,-24.5711,933.994
198.9000,-34.6107,932.303
198.8000,-32.989,931.12
198.7000,-30.2839,929.105
198.6000,-27.0874,927.201
198.5000,-10.3594,925.708
198.4000,0.882379,924.534
198.3000,0.367755,922.565
198.2000,3.46334,921.135
198.1000,9.58647,918.843
198.0000,7.27882,917.203
197.9000,-0.567282,915.654
197.8000,-6.50943,914.277
197.7000,-28.5324,912.622
197.6000,-53.9819,910.238
197.5000,-61.3232,908.17
197.4000,-66.8164,905.934
197.3000,-75.8029,903.902
197.2000,-73.1188,901.779
197.1000,-54.6208,899.554
197.0000,-36.6834,897.292
196.9000,-30.4776,893.929
196.8000,-26.4715,890.316
196.7000,-21.4991,887.375
196.6000,1.16367,884.272
196.5000,8.63712,880.661
196.4000,0.81608,877.12
196.3000,-1.41573,873.173
196.2000,3.26403,870.178
196.1000,9.27045,866.938
196.0000,33.6696,865.768
195.9000,48.1205,863.375
195.8000,44.0022,859.96
195.7000,41.1078,857.235
195.6000,55.5096,855.448
195.5000,50.7505,852.807
195.4000,38.5696,849.259
195.3000,27.6074,846.609
195.2000,20.4611,842.342
195.1000,3.41263,836.696
195.0000,-2.34171,828.241
194.9000,-4.14507,772.861
194.8000,-10.1202,682.967
194.7000,-8.0979,586.58
194.6000,-9.62286,574.501
194.5000,-15.8525,596.11
194.4000,-16.4813,618.243
194.3000,-20.7406,593.33
194.2000,-19.3847,596.483
194.1000,-17.3382,648.448
194.0000,-5.3184,750.294
193.9000,11.3735,864.965
193.8000,28.5767,932.859
193.7000,27.2023,931.404
193.6000,13.7074,927.27
193.5000,2.26017,946.126
193.4000,4.00751,991.533
193.3000,10.5051,990.681
193.2000,3.75864,989.309
193.1000,-8.97488,988.094
193.0000,-29.8161,986.886
192.9000,-28.6176,986.31
192.8000,-16.6031,986.396
192.7000,-8.10641,986.096
192.6000,-4.13865,985.953
192.5000,4.61428,985.905
192.4000,13.7125,985.849
192.3000,31.3522,986.334
192.2000,34.7243,985.891
192.1000,31.6265,949.626
192.0000,28.6932,953.98
191.9000,43.9391,961.146
191.8000,65.2217,968.534
191.7000,61.5515,975.283
191.6000,45.6484,981.349
191.5000,28.5327,987.645
191.4000,29.0845,994.409
191.3000,45.281,1028.74
191.2000,60.4406,1042.35
191.1000,71.1165,1042.68
191.0000,64.0878,1042.48
190.9000,54.245,1042.17
190.8000,42.9825,1041.81
190.7000,40.3569,1041.73
190.6000,26.56,1041.3
190.5000,6.81533,1040.7
190.4000,-8.17978,1040.25
190.3000,-19.4368,1039.9
190.2000,-22.8847,1039.8
190.1000,-16.014,1040
190.0000,-5.35738,1040.34

##### Extended Information
[Comments]
Sample name,Dl121-D116M lit
Comment,lit
User
Division
Company,UT Southwestern Medical Center at Dallas

[Detailed Information]
Creation date,2/14/2023 1:00 PM

Data array type,Linear data array * 2
Horizontal axis,Wavelength [nm]
Vertical axis(1),CD [mdeg]
Vertical axis(2),HT [V]
Start,260 nm
End,190 nm
Data interval,0.1 nm
Data points,701     

[Measurement Information]
Instrument name,Jasco CD
Model name,J-815
Serial No.,B064061168

Accessory,CDF-426S
Accessory S/N,A00861183
  Temperature,14.99 C
  Control sonsor,Holder
  Monitor sensor,Holder
  Start Mode,Keep target temperature +/-0.10 deg C while 5 seconds
  Cell length,10 mm

Measurement date,2/14/2023 1:00 PM

Photometric mode,CD, HT
Measure range,260 - 190 nm
Data pitch,0.1 nm
Sensitivity,Standard
D.I.T.,1 sec
Bandwidth,1.00 nm
Start mode,Immediately
Scanning speed,50 nm/min
Baseline correction,None
Shutter control,Manual
CD detector,PMT
PMT voltage,Auto
No. of cycle,2/3

Concentration,0.94 (w/v)%

