TITLE,DL121-C450S-LED
DATA TYPE,
ORIGIN,JASCO
OWNER,
DATE,22/06/24
TIME,13:30:29
SPECTROMETER/DATA SYSTEM,
LOCALE,1033
RESOLUTION,
DELTAX,-0.1
XUNITS,NANOMETERS
YUNITS,CD [mdeg]
Y2UNITS,HT [V]
FIRSTX,  260.0000
LASTX,  190.0000
NPOINTS,     701
FIRSTY,    -0.85497
MAXY,    65.85435
MINY,   -66.06055
XYDATA
260.0000,-0.854965,275.794
259.9000,-0.850504,275.818
259.8000,-0.835333,275.848
259.7000,-0.815961,275.886
259.6000,-0.914291,275.918
259.5000,-0.975702,275.956
259.4000,-1.06292,275.989
259.3000,-1.17519,276.012
259.2000,-1.26425,276.039
259.1000,-1.25932,276.071
259.0000,-1.20397,276.106
258.9000,-1.10218,276.141
258.8000,-1.02498,276.172
258.7000,-0.970648,276.198
258.6000,-0.996606,275.798
258.5000,-1.02995,275.334
258.4000,-1.01715,275.049
258.3000,-0.992889,275.079
258.2000,-0.96178,275.107
258.1000,-1.00445,275.116
258.0000,-1.09416,275.137
257.9000,-1.10395,275.162
257.8000,-1.0899,275.435
257.7000,-1.00373,275.958
257.6000,-0.94993,276.451
257.5000,-0.858069,276.488
257.4000,-0.850317,276.509
257.3000,-0.884158,276.536
257.2000,-0.866885,276.557
257.1000,-0.904694,276.573
257.0000,-0.917789,276.595
256.9000,-0.913489,276.606
256.8000,-0.854504,276.608
256.7000,-0.954752,276.611
256.6000,-0.978452,276.619
256.5000,-0.99133,276.63
256.4000,-1.00998,276.649
256.3000,-0.959113,276.655
256.2000,-0.930972,276.667
256.1000,-0.959586,276.687
256.0000,-1.00005,276.71
255.9000,-1.05638,276.743
255.8000,-1.01708,276.769
255.7000,-1.00312,276.797
255.6000,-1.00511,276.816
255.5000,-1.0639,276.844
255.4000,-1.0671,276.875
255.3000,-1.03108,276.893
255.2000,-1.06176,276.921
255.1000,-1.07932,276.943
255.0000,-1.09998,276.961
254.9000,-1.15157,276.978
254.8000,-1.17818,276.998
254.7000,-1.19101,277.018
254.6000,-1.14135,277.038
254.5000,-1.17505,277.067
254.4000,-1.21388,277.09
254.3000,-1.20759,277.113
254.2000,-1.20822,277.136
254.1000,-1.24223,277.168
254.0000,-1.1773,277.204
253.9000,-1.16956,277.236
253.8000,-1.15525,277.277
253.7000,-1.12388,277.314
253.6000,-1.04935,277.338
253.5000,-0.89903,277.372
253.4000,-0.76199,277.408
253.3000,-0.674527,277.445
253.2000,-0.685574,277.473
253.1000,-0.646365,277.502
253.0000,-0.595093,277.521
252.9000,-0.602744,277.542
252.8000,-0.673373,277.572
252.7000,-0.763153,277.6
252.6000,-0.848126,277.626
252.5000,-0.883591,277.653
252.4000,-0.946576,277.669
252.3000,-1.00572,277.698
252.2000,-1.17156,277.726
252.1000,-1.25589,277.755
252.0000,-1.21609,277.783
251.9000,-1.1854,277.801
251.8000,-1.19159,277.826
251.7000,-1.25265,277.837
251.6000,-1.23387,277.867
251.5000,-1.13511,277.894
251.4000,-1.01779,277.928
251.3000,-0.928439,277.963
251.2000,-0.932227,277.982
251.1000,-0.993359,278.01
251.0000,-1.0465,278.038
250.9000,-1.08628,278.077
250.8000,-1.12399,278.106
250.7000,-1.17509,278.137
250.6000,-1.29397,278.163
250.5000,-1.34401,278.179
250.4000,-1.33414,278.213
250.3000,-1.26371,278.252
250.2000,-1.1877,278.298
250.1000,-1.12081,278.299
250.0000,-1.06391,277.838
249.9000,-0.988504,277.358
249.8000,-0.938208,277.15
249.7000,-0.994522,277.202
249.6000,-1.01129,277.247
249.5000,-1.05261,277.281
249.4000,-1.09163,277.322
249.3000,-1.18908,277.352
249.2000,-1.25275,277.747
249.1000,-1.2909,278.307
249.0000,-1.37735,278.754
248.9000,-1.41933,278.786
248.8000,-1.44396,278.814
248.7000,-1.51681,278.859
248.6000,-1.53773,278.907
248.5000,-1.59073,278.955
248.4000,-1.52909,279.016
248.3000,-1.51004,279.063
248.2000,-1.49827,279.111
248.1000,-1.38842,279.165
248.0000,-1.2571,279.212
247.9000,-1.18287,279.269
247.8000,-1.1289,279.313
247.7000,-1.08396,279.346
247.6000,-1.01524,279.392
247.5000,-1.01609,279.442
247.4000,-0.989691,279.496
247.3000,-0.968665,279.548
247.2000,-1.08628,279.612
247.1000,-1.18922,279.662
247.0000,-1.25263,279.707
246.9000,-1.34631,279.776
246.8000,-1.44399,279.844
246.7000,-1.55299,279.902
246.6000,-1.62201,279.969
246.5000,-1.68857,280.046
246.4000,-1.69622,280.117
246.3000,-1.69769,280.193
246.2000,-1.73884,280.278
246.1000,-1.71139,280.367
246.0000,-1.74092,280.446
245.9000,-1.79644,280.531
245.8000,-1.97873,280.6
245.7000,-2.08247,280.674
245.6000,-2.14358,280.753
245.5000,-2.19755,280.826
245.4000,-2.24175,280.901
245.3000,-2.33728,280.969
245.2000,-2.42433,281.033
245.1000,-2.47162,281.097
245.0000,-2.40345,281.176
244.9000,-2.33893,281.258
244.8000,-2.38609,281.331
244.7000,-2.38719,281.417
244.6000,-2.34686,281.51
244.5000,-2.29965,281.593
244.4000,-2.30909,281.682
244.3000,-2.29447,281.775
244.2000,-2.3316,281.871
244.1000,-2.35157,281.973
244.0000,-2.30731,282.076
243.9000,-2.27347,282.176
243.8000,-2.31654,282.273
243.7000,-2.30331,282.388
243.6000,-2.30336,282.503
243.5000,-2.30796,282.621
243.4000,-2.36857,282.743
243.3000,-2.48889,282.857
243.2000,-2.61768,282.982
243.1000,-2.72557,283.106
243.0000,-2.87617,283.235
242.9000,-3.05183,283.366
242.8000,-3.2269,283.495
242.7000,-3.40041,283.628
242.6000,-3.47128,283.764
242.5000,-3.5407,283.905
242.4000,-3.68683,284.05
242.3000,-3.82794,284.192
242.2000,-3.89699,284.342
242.1000,-3.88398,284.494
242.0000,-3.99772,284.641
241.9000,-4.03357,284.795
241.8000,-4.00908,284.951
241.7000,-4.06929,285.114
241.6000,-4.05126,285.274
241.5000,-4.04643,285.288
241.4000,-4.06511,284.815
241.3000,-4.14194,284.332
241.2000,-4.20398,284.321
241.1000,-4.31091,284.498
241.0000,-4.46224,284.679
240.9000,-4.56324,284.862
240.8000,-4.64742,285.048
240.7000,-4.63512,285.246
240.6000,-4.76103,286.012
240.5000,-4.89566,286.857
240.4000,-5.04588,287.459
240.3000,-5.16601,287.659
240.2000,-5.28901,287.863
240.1000,-5.54898,288.076
240.0000,-5.76889,288.301
239.9000,-6.03528,288.528
239.8000,-6.33804,288.763
239.7000,-6.47367,289.013
239.6000,-6.61144,289.259
239.5000,-6.63336,289.526
239.4000,-6.80758,289.804
239.3000,-6.89592,290.09
239.2000,-7.00981,290.37
239.1000,-7.04885,290.66
239.0000,-6.98629,290.954
238.9000,-7.10698,291.242
238.8000,-7.26302,291.538
238.7000,-7.38329,291.838
238.6000,-7.45751,292.141
238.5000,-7.46725,292.442
238.4000,-7.52773,292.733
238.3000,-7.70295,293.041
238.2000,-7.99448,293.352
238.1000,-8.28099,293.683
238.0000,-8.4744,294.031
237.9000,-8.70893,294.378
237.8000,-8.90157,294.724
237.7000,-9.11431,295.074
237.6000,-9.32052,295.452
237.5000,-9.51003,295.832
237.4000,-9.67169,296.222
237.3000,-9.87167,296.613
237.2000,-10.074,297.007
237.1000,-10.287,297.41
237.0000,-10.6225,297.814
236.9000,-10.9533,298.234
236.8000,-11.284,298.655
236.7000,-11.5672,299.083
236.6000,-11.8947,299.513
236.5000,-12.1717,299.954
236.4000,-12.2036,300.405
236.3000,-12.2157,300.868
236.2000,-12.2543,301.358
236.1000,-12.2849,301.842
236.0000,-12.3064,302.339
235.9000,-12.3731,302.856
235.8000,-12.4308,303.376
235.7000,-12.4973,303.895
235.6000,-12.5755,304.423
235.5000,-12.9335,304.955
235.4000,-13.3115,305.482
235.3000,-13.6773,306.019
235.2000,-14.0279,306.564
235.1000,-14.5026,307.099
235.0000,-14.8965,307.653
234.9000,-15.0891,308.214
234.8000,-15.4214,308.783
234.7000,-15.7552,309.371
234.6000,-15.996,309.967
234.5000,-16.2153,310.577
234.4000,-16.457,311.2
234.3000,-16.4999,311.832
234.2000,-16.5436,312.465
234.1000,-16.7805,313.116
234.0000,-16.9722,313.786
233.9000,-17.0812,314.45
233.8000,-17.2334,315.13
233.7000,-17.4963,315.808
233.6000,-17.7432,316.497
233.5000,-18.0709,317.196
233.4000,-18.4792,317.901
233.3000,-18.8691,318.61
233.2000,-19.351,319.329
233.1000,-19.7663,320.063
233.0000,-20.2722,320.79
232.9000,-20.5914,320.812
232.8000,-20.4074,319.796
232.7000,-20.0628,318.745
232.6000,-19.8925,319.321
232.5000,-19.927,320.105
232.4000,-19.9842,320.882
232.3000,-20.1876,321.643
232.2000,-20.5035,322.402
232.1000,-20.7633,323.343
232.0000,-21.3832,325.839
231.9000,-22.3957,328.407
231.8000,-23.3572,329.99
231.7000,-23.9642,330.781
231.6000,-24.5764,331.573
231.5000,-25.2091,332.378
231.4000,-25.7186,333.193
231.3000,-26.1186,334.019
231.2000,-26.3735,334.854
231.1000,-26.5679,335.692
231.0000,-26.8544,336.516
230.9000,-27.1916,337.329
230.8000,-27.5892,338.132
230.7000,-27.8115,338.93
230.6000,-28.0285,339.743
230.5000,-28.2814,340.554
230.4000,-28.6683,341.333
230.3000,-29.1525,342.113
230.2000,-29.7516,342.887
230.1000,-30.2517,343.666
230.0000,-30.6298,344.453
229.9000,-31.1877,345.236
229.8000,-31.7787,346.01
229.7000,-32.3576,346.781
229.6000,-32.8687,347.579
229.5000,-33.324,348.366
229.4000,-33.6079,349.154
229.3000,-33.8221,349.959
229.2000,-34.0101,350.762
229.1000,-34.1877,351.563
229.0000,-34.3058,352.391
228.9000,-34.555,353.208
228.8000,-34.9607,354.012
228.7000,-35.4229,354.833
228.6000,-35.959,355.645
228.5000,-36.5561,356.436
228.4000,-37.2552,357.227
228.3000,-37.9974,358.03
228.2000,-38.5672,358.82
228.1000,-38.9734,359.612
228.0000,-39.177,360.401
227.9000,-39.2966,361.171
227.8000,-39.6182,361.929
227.7000,-39.846,362.71
227.6000,-40.1034,363.478
227.5000,-40.4884,364.219
227.4000,-41.1237,364.949
227.3000,-41.7648,365.672
227.2000,-42.5183,366.387
227.1000,-43.4503,367.096
227.0000,-44.4708,367.812
226.9000,-45.2272,368.521
226.8000,-45.862,369.226
226.7000,-46.2387,369.944
226.6000,-46.5427,370.658
226.5000,-46.7562,371.376
226.4000,-47.0396,372.088
226.3000,-47.4556,372.789
226.2000,-47.7323,373.493
226.1000,-48.1532,374.173
226.0000,-48.6154,374.853
225.9000,-48.9869,375.534
225.8000,-49.3127,376.22
225.7000,-49.7457,376.892
225.6000,-50.1314,377.555
225.5000,-50.5432,378.218
225.4000,-50.959,378.872
225.3000,-51.196,379.552
225.2000,-51.4689,380.233
225.1000,-51.7691,380.918
225.0000,-52.2389,381.592
224.9000,-52.8807,382.257
224.8000,-53.5354,382.933
224.7000,-54.1042,383.601
224.6000,-54.4776,384.275
224.5000,-54.532,384.958
224.4000,-54.6833,385.636
224.3000,-54.102,382.591
224.2000,-51.3812,377.497
224.1000,-47.6649,372.914
224.0000,-45.4899,373.42
223.9000,-44.9654,374.102
223.8000,-44.633,374.782
223.7000,-44.8245,375.447
223.6000,-45.3093,376.107
223.5000,-46.0844,378.421
223.4000,-49.1052,384.963
223.3000,-53.3332,391.417
223.2000,-56.6734,393.629
223.1000,-57.8764,394.265
223.0000,-58.6806,394.922
222.9000,-59.4374,395.571
222.8000,-60.083,396.214
222.7000,-60.5261,396.869
222.6000,-60.902,397.53
222.5000,-61.1192,398.198
222.4000,-61.1814,398.868
222.3000,-61.0735,399.548
222.2000,-61.5505,400.204
222.1000,-61.5799,400.884
222.0000,-61.516,401.559
221.9000,-61.4886,402.226
221.8000,-61.2838,402.891
221.7000,-61.3416,403.534
221.6000,-61.5779,404.168
221.5000,-62.0134,404.809
221.4000,-62.1956,405.475
221.3000,-62.4836,406.116
221.2000,-62.3807,406.778
221.1000,-62.4238,407.438
221.0000,-62.6963,408.085
220.9000,-62.7757,408.748
220.8000,-62.7287,409.422
220.7000,-63.1371,410.091
220.6000,-63.5608,410.753
220.5000,-63.5711,411.439
220.4000,-63.9449,412.11
220.3000,-64.3924,412.785
220.2000,-64.3649,413.492
220.1000,-64.4837,414.183
220.0000,-64.6442,414.879
219.9000,-64.3932,415.588
219.8000,-64.1719,416.288
219.7000,-64.2315,416.971
219.6000,-64.1285,417.652
219.5000,-64.0765,418.334
219.4000,-64.1648,419.009
219.3000,-64.1043,419.686
219.2000,-63.8231,420.38
219.1000,-63.7395,421.062
219.0000,-63.6921,421.749
218.9000,-63.5937,422.423
218.8000,-63.2221,423.128
218.7000,-62.781,423.843
218.6000,-62.4723,424.563
218.5000,-62.5713,425.278
218.4000,-62.6101,426.009
218.3000,-62.6734,426.737
218.2000,-62.5326,427.456
218.1000,-62.0001,428.2
218.0000,-62.0135,428.93
217.9000,-62.7121,429.631
217.8000,-62.8993,430.333
217.7000,-62.6071,431.062
217.6000,-62.9157,431.759
217.5000,-63.0721,432.461
217.4000,-63.529,433.174
217.3000,-63.8834,433.901
217.2000,-63.9804,434.636
217.1000,-63.7813,435.376
217.0000,-63.7145,436.125
216.9000,-63.8795,436.864
216.8000,-63.5468,437.641
216.7000,-63.1658,438.42
216.6000,-62.8147,439.217
216.5000,-62.4783,440.022
216.4000,-62.1188,440.849
216.3000,-62.1317,441.684
216.2000,-62.0285,442.539
216.1000,-61.3622,443.428
216.0000,-60.7993,444.3
215.9000,-60.7617,445.173
215.8000,-60.933,446.056
215.7000,-59.1763,436.574
215.6000,-54.876,425.721
215.5000,-49.0926,417.733
215.4000,-46.191,418.508
215.3000,-45.2857,419.423
215.2000,-45.2117,420.348
215.1000,-45.449,421.291
215.0000,-45.4683,422.244
214.9000,-46.5163,429.179
214.8000,-50.397,442.407
214.7000,-55.3164,455.097
214.6000,-58.682,457.392
214.5000,-60.7895,458.398
214.4000,-61.8676,459.441
214.3000,-62.0994,460.527
214.2000,-61.8541,461.639
214.1000,-61.0028,462.798
214.0000,-60.1763,463.966
213.9000,-59.9421,465.129
213.8000,-60.338,466.289
213.7000,-59.7225,467.496
213.6000,-58.8226,468.738
213.5000,-58.5712,469.953
213.4000,-58.8021,471.203
213.3000,-58.8798,472.457
213.2000,-58.8959,473.734
213.1000,-58.9219,475.048
213.0000,-58.4879,476.413
212.9000,-57.5538,477.831
212.8000,-57.1,479.236
212.7000,-56.6866,480.661
212.6000,-56.292,482.114
212.5000,-55.816,483.579
212.4000,-55.6332,485.062
212.3000,-55.5731,486.559
212.2000,-56.3019,488.043
212.1000,-56.7445,489.546
212.0000,-57.4039,491.055
211.9000,-57.2749,492.657
211.8000,-57.4418,494.25
211.7000,-57.5876,495.871
211.6000,-57.3194,497.537
211.5000,-57.786,499.191
211.4000,-57.3185,500.906
211.3000,-57.286,502.631
211.2000,-56.7508,504.4
211.1000,-56.8443,506.173
211.0000,-56.2561,507.997
210.9000,-55.5703,509.867
210.8000,-55.8308,511.727
210.7000,-55.7177,513.627
210.6000,-55.6575,515.563
210.5000,-55.3877,517.531
210.4000,-55.4727,519.519
210.3000,-55.5947,521.552
210.2000,-56.7455,523.572
210.1000,-57.6147,525.65
210.0000,-56.9246,527.801
209.9000,-57.5212,529.954
209.8000,-57.7522,532.16
209.7000,-57.4204,534.43
209.6000,-57.5893,536.745
209.5000,-57.3366,539.115
209.4000,-57.6188,541.513
209.3000,-57.1336,543.968
209.2000,-57.3204,546.447
209.1000,-57.1096,549.009
209.0000,-56.2839,551.632
208.9000,-56.6234,554.269
208.8000,-57.3488,556.951
208.7000,-58.8776,559.651
208.6000,-58.3247,562.461
208.5000,-58.2274,565.312
208.4000,-58.7562,568.191
208.3000,-58.7876,571.143
208.2000,-59.7381,574.133
208.1000,-60.5021,577.18
208.0000,-60.1355,580.297
207.9000,-57.0446,583.553
207.8000,-54.8886,586.849
207.7000,-53.4103,590.164
207.6000,-51.9751,593.538
207.5000,-50.8877,596.954
207.4000,-50.7471,600.362
207.3000,-50.0556,603.846
207.2000,-49.9001,607.349
207.1000,-48.2383,576.222
207.0000,-44.8298,514.447
206.9000,-40.444,488.561
206.8000,-37.689,491.042
206.7000,-36.4162,493.822
206.6000,-34.7525,496.636
206.5000,-34.1547,499.433
206.4000,-32.5946,502.291
206.3000,-33.772,522.522
206.2000,-37.9937,584.967
206.1000,-42.5248,638.669
206.0000,-45.3038,644.608
205.9000,-45.2258,648.737
205.8000,-42.5499,653.058
205.7000,-40.7446,657.444
205.6000,-38.8627,661.911
205.5000,-37.2852,666.456
205.4000,-33.9788,671.11
205.3000,-33.9529,675.696
205.2000,-32.9031,680.36
205.1000,-35.9656,684.938
205.0000,-40.8539,689.511
204.9000,-40.8794,694.304
204.8000,-41.742,699.076
204.7000,-41.1351,703.913
204.6000,-38.9851,708.828
204.5000,-36.3251,713.785
204.4000,-32.8674,718.833
204.3000,-33.736,723.704
204.2000,-28.6795,728.793
204.1000,-27.8367,733.735
204.0000,-29.872,738.578
203.9000,-30.789,743.479
203.8000,-30.6889,748.426
203.7000,-34.2388,753.271
203.6000,-37.8813,758.091
203.5000,-38.2403,762.988
203.4000,-38.9377,767.787
203.3000,-41.0367,772.551
203.2000,-41.1137,777.352
203.1000,-37.3154,782.265
203.0000,-39.0267,786.915
202.9000,-32.933,791.724
202.8000,-23.3297,796.604
202.7000,-18.2185,801.319
202.6000,-17.7365,805.876
202.5000,-15.9095,810.349
202.4000,-13.3351,814.795
202.3000,-14.3229,819.022
202.2000,-7.20531,823.443
202.1000,-14.5259,827.341
202.0000,-37.0454,830.671
201.9000,-46.4227,834.306
201.8000,-40.2031,838.329
201.7000,-35.8891,842.178
201.6000,-44.9135,845.535
201.5000,-51.9221,848.804
201.4000,-62.7992,851.887
201.3000,-61.6737,855.258
201.2000,-58.3237,858.557
201.1000,-49.8283,861.958
201.0000,-42.8897,865.205
200.9000,-38.0594,868.314
200.8000,-38.354,871.109
200.7000,-20.4718,874.39
200.6000,-4.65759,877.505
200.5000,-8.0616,879.883
200.4000,-7.53167,882.307
200.3000,3.23275,884.922
200.2000,1.61549,887.042
200.1000,-18.0178,865.169
200.0000,-12.3891,837.7
199.9000,-21.4422,842.475
199.8000,-22.2909,847.644
199.7000,-24.0703,852.617
199.6000,-22.2234,857.545
199.5000,-32.7316,862.128
199.4000,-31.6754,867.078
199.3000,-16.0058,878.59
199.2000,-12.4015,930.06
199.1000,-15.6196,933.232
199.0000,-20.6489,934.562
198.9000,-25.8866,936.1
198.8000,-22.6296,937.878
198.7000,-11.8066,939.719
198.6000,1.71715,938.799
198.5000,-7.55481,871.472
198.4000,-14.9961,770.137
198.3000,-6.07237,671.746
198.2000,-3.57175,660.674
198.1000,-10.0373,663.217
198.0000,-15.6162,665.25
197.9000,-28.0745,666.904
197.8000,-57.0964,668.061
197.7000,-66.0605,711.345
197.6000,-58.2528,809.4
197.5000,-59.2499,919.86
197.4000,-62.8225,960.635
197.3000,-37.1593,961.554
197.2000,-19.664,962.158
197.1000,-7.5402,962.847
197.0000,12.4811,963.798
196.9000,37.1008,964.94
196.8000,41.7277,965.377
196.7000,29.8716,965.303
196.6000,35.6319,965.731
196.5000,35.0834,965.841
196.4000,15.5837,965.428
196.3000,10.4485,965.466
196.2000,23.2296,965.886
196.1000,15.5635,965.78
196.0000,0.425943,965.384
195.9000,0.938412,965.517
195.8000,12.1179,965.956
195.7000,4.1817,965.9
195.6000,8.97707,966.085
195.5000,17.4973,966.387
195.4000,7.01733,966.151
195.3000,15.4676,966.414
195.2000,28.3992,966.849
195.1000,46.8009,967.507
195.0000,41.8621,967.282
194.9000,41.74,967.047
194.8000,46.7385,967.084
194.7000,35.8606,966.648
194.6000,39.6429,966.682
194.5000,41.3206,966.515
194.4000,52.6417,966.714
194.3000,59.9498,966.739
194.2000,57.4394,966.36
194.1000,54.3716,966.207
194.0000,54.4114,966.15
193.9000,62.7823,966.159
193.8000,65.8109,966.085
193.7000,45.3165,965.39
193.6000,29.0738,964.738
193.5000,10.8063,963.901
193.4000,5.80204,963.554
193.3000,26.447,963.984
193.2000,24.6548,963.753
193.1000,28.7906,963.682
193.0000,45.1723,963.953
192.9000,57.9496,964.063
192.8000,65.5674,964.055
192.7000,65.8543,963.706
192.6000,63.9323,963.478
192.5000,46.623,962.597
192.4000,45.9029,962.236
192.3000,32.7986,961.436
192.2000,12.7921,960.382
192.1000,3.908,959.888
192.0000,9.40494,959.734
191.9000,13.3809,959.562
191.8000,17.3263,959.383
191.7000,19.7309,959.167
191.6000,28.4621,958.977
191.5000,35.8137,958.865
191.4000,47.7188,959.033
191.3000,35.5863,958.253
191.2000,10.3507,956.962
191.1000,-7.78184,955.988
191.0000,-25.6651,954.939
190.9000,-14.2042,955.016
190.8000,-27.0917,954.376
190.7000,-52.1093,953.359
190.6000,-56.7954,952.894
190.5000,-53.3866,952.778
190.4000,-45.988,952.855
190.3000,-38.1723,952.91
190.2000,-22.9557,953.362
190.1000,-36.1614,952.727
190.0000,-38.3155,942.764

##### Extended Information
[Comments]
Sample name,DL121-C450S-LED
Comment
User
Division
Company,UT Southwestern Medical Center at Dallas

[Detailed Information]
Creation date,6/24/2022 1:30 PM

Data array type,Linear data array * 2
Horizontal axis,Wavelength [nm]
Vertical axis(1),CD [mdeg]
Vertical axis(2),HT [V]
Start,260 nm
End,190 nm
Data interval,0.1 nm
Data points,701     

[Measurement Information]
Instrument name,Jasco CD
Model name,J-815
Serial No.,B064061168

Accessory,CDF-426S
Accessory S/N,A00861183
  Temperature,14.99 C
  Control sonsor,Holder
  Monitor sensor,Holder
  Start Mode,Keep target temperature +/-0.10 deg C while 5 seconds
  Cell length,10 mm

Measurement date,6/24/2022 1:30 PM

Photometric mode,CD, HT
Measure range,260 - 190 nm
Data pitch,0.1 nm
Sensitivity,Standard
D.I.T.,1 sec
Bandwidth,1.00 nm
Start mode,Immediately
Scanning speed,50 nm/min
Baseline correction,None
Shutter control,Manual
CD detector,PMT
PMT voltage,Auto

Concentration,0.1 (w/v)%

