TITLE,Dl121-D87A-1
DATA TYPE,
ORIGIN,JASCO
OWNER,
DATE,23/02/09
TIME,13:22:31
SPECTROMETER/DATA SYSTEM,
LOCALE,1033
RESOLUTION,
DELTAX,-0.1
XUNITS,NANOMETERS
YUNITS,CD [mdeg]
Y2UNITS,HT [V]
FIRSTX,  260.0000
LASTX,  190.0000
NPOINTS,     701
FIRSTY,    -0.41444
MAXY,    29.44520
MINY,   -73.46518
XYDATA
260.0000,-0.414444,283.948
259.9000,-0.405289,283.983
259.8000,-0.395276,284.027
259.7000,-0.38088,284.079
259.6000,-0.422279,284.118
259.5000,-0.445779,284.156
259.4000,-0.475942,284.2
259.3000,-0.501001,284.235
259.2000,-0.556938,284.272
259.1000,-0.582102,284.311
259.0000,-0.584725,284.348
258.9000,-0.594368,284.382
258.8000,-0.611325,284.419
258.7000,-0.627019,284.448
258.6000,-0.623496,284.476
258.5000,-0.613316,284.514
258.4000,-0.583308,284.545
258.3000,-0.5749,284.576
258.2000,-0.564509,284.612
258.1000,-0.578557,284.637
258.0000,-0.581905,284.663
257.9000,-0.565558,284.697
257.8000,-0.548247,284.726
257.7000,-0.555654,284.751
257.6000,-0.574779,284.777
257.5000,-0.548454,284.796
257.4000,-0.535162,284.813
257.3000,-0.525605,284.832
257.2000,-0.51643,284.853
257.1000,-0.500822,284.874
257.0000,-0.515376,284.894
256.9000,-0.502848,284.916
256.8000,-0.481946,284.933
256.7000,-0.507483,284.954
256.6000,-0.535634,284.982
256.5000,-0.547967,285.008
256.4000,-0.539149,285.035
256.3000,-0.544617,285.056
256.2000,-0.531119,285.081
256.1000,-0.523036,285.108
256.0000,-0.537645,285.132
255.9000,-0.563842,285.159
255.8000,-0.579182,285.179
255.7000,-0.566296,285.204
255.6000,-0.539828,285.233
255.5000,-0.529599,285.263
255.4000,-0.510814,285.292
255.3000,-0.489658,285.314
255.2000,-0.485151,285.344
255.1000,-0.453714,285.373
255.0000,-0.416921,285.408
254.9000,-0.419478,285.435
254.8000,-0.427006,285.461
254.7000,-0.444486,285.495
254.6000,-0.473287,285.524
254.5000,-0.530831,285.558
254.4000,-0.554347,285.593
254.3000,-0.585083,285.631
254.2000,-0.598961,285.664
254.1000,-0.598562,285.699
254.0000,-0.603574,285.733
253.9000,-0.605402,285.766
253.8000,-0.578958,285.799
253.7000,-0.541516,285.833
253.6000,-0.536037,285.86
253.5000,-0.538383,285.888
253.4000,-0.534373,285.916
253.3000,-0.558137,285.947
253.2000,-0.573632,285.979
253.1000,-0.576827,286.012
253.0000,-0.588821,286.04
252.9000,-0.610417,286.071
252.8000,-0.6121,286.11
252.7000,-0.592348,286.152
252.6000,-0.611687,286.185
252.5000,-0.634821,286.221
252.4000,-0.65031,286.255
252.3000,-0.642631,286.29
252.2000,-0.678754,286.325
252.1000,-0.689926,286.358
252.0000,-0.672722,286.389
251.9000,-0.681037,286.415
251.8000,-0.667431,286.449
251.7000,-0.627703,286.481
251.6000,-0.598108,286.516
251.5000,-0.605323,286.545
251.4000,-0.607628,286.578
251.3000,-0.615983,286.609
251.2000,-0.65595,286.639
251.1000,-0.664528,286.673
251.0000,-0.651711,286.701
250.9000,-0.646434,286.735
250.8000,-0.67015,286.765
250.7000,-0.688059,286.803
250.6000,-0.677768,286.837
250.5000,-0.665765,286.87
250.4000,-0.647812,286.913
250.3000,-0.653878,286.95
250.2000,-0.720241,286.999
250.1000,-0.780298,287.042
250.0000,-0.804044,287.081
249.9000,-0.827895,287.126
249.8000,-0.856982,287.17
249.7000,-0.876941,287.22
249.6000,-0.902016,287.261
249.5000,-0.907659,287.303
249.4000,-0.906795,287.347
249.3000,-0.917606,287.388
249.2000,-0.949587,287.434
249.1000,-0.977373,287.48
249.0000,-0.970665,287.521
248.9000,-0.988492,287.562
248.8000,-1.01257,287.613
248.7000,-1.03631,287.663
248.6000,-1.03716,287.713
248.5000,-1.03653,287.767
248.4000,-1.02623,287.819
248.3000,-1.01966,287.871
248.2000,-1.04029,287.93
248.1000,-1.07652,287.983
248.0000,-1.09902,288.028
247.9000,-1.15411,288.079
247.8000,-1.21138,288.131
247.7000,-1.24085,288.175
247.6000,-1.28559,288.226
247.5000,-1.30642,288.274
247.4000,-1.34418,288.321
247.3000,-1.36869,288.37
247.2000,-1.39958,288.435
247.1000,-1.40844,288.497
247.0000,-1.41701,288.559
246.9000,-1.4412,288.635
246.8000,-1.4533,288.711
246.7000,-1.49625,288.792
246.6000,-1.52624,288.872
246.5000,-1.56683,288.959
246.4000,-1.6015,289.047
246.3000,-1.64773,289.129
246.2000,-1.69492,289.213
246.1000,-1.73735,289.299
246.0000,-1.77945,289.379
245.9000,-1.81513,289.456
245.8000,-1.81582,289.533
245.7000,-1.83956,289.615
245.6000,-1.87149,289.692
245.5000,-1.91947,289.776
245.4000,-1.93202,289.859
245.3000,-1.9403,289.937
245.2000,-1.97392,290.023
245.1000,-1.99256,290.112
245.0000,-2.03743,290.205
244.9000,-2.07749,290.298
244.8000,-2.1094,290.394
244.7000,-2.12249,290.496
244.6000,-2.16327,290.598
244.5000,-2.2194,290.706
244.4000,-2.27475,290.809
244.3000,-2.33862,290.91
244.2000,-2.41909,291.02
244.1000,-2.49487,291.137
244.0000,-2.56845,291.252
243.9000,-2.65385,291.362
243.8000,-2.72656,291.472
243.7000,-2.78932,291.59
243.6000,-2.87054,291.713
243.5000,-2.94132,291.837
243.4000,-3.01183,291.969
243.3000,-3.0918,292.101
243.2000,-3.18718,292.231
243.1000,-3.26729,292.366
243.0000,-3.36172,292.511
242.9000,-3.46082,292.651
242.8000,-3.55379,292.79
242.7000,-3.62476,292.933
242.6000,-3.71164,293.075
242.5000,-3.79774,293.215
242.4000,-3.89023,293.37
242.3000,-3.98649,293.526
242.2000,-4.06259,293.686
242.1000,-4.12958,293.848
242.0000,-4.21074,294.018
241.9000,-4.31024,294.193
241.8000,-4.40656,294.367
241.7000,-4.48397,294.549
241.6000,-4.5799,294.725
241.5000,-4.66877,294.903
241.4000,-4.79015,295.082
241.3000,-4.91063,295.266
241.2000,-5.0062,295.454
241.1000,-5.10106,295.644
241.0000,-5.2106,295.846
240.9000,-5.33311,296.051
240.8000,-5.49113,296.264
240.7000,-5.64243,296.48
240.6000,-5.76773,296.701
240.5000,-5.88914,296.929
240.4000,-6.03043,297.162
240.3000,-6.1964,297.4
240.2000,-6.38752,297.641
240.1000,-6.5671,297.892
240.0000,-6.71502,298.145
239.9000,-6.82132,298.403
239.8000,-6.94155,298.674
239.7000,-7.0916,298.946
239.6000,-7.28173,299.224
239.5000,-7.43584,299.508
239.4000,-7.54529,299.802
239.3000,-7.67279,300.101
239.2000,-7.83391,300.4
239.1000,-7.98524,300.709
239.0000,-8.1586,301.024
238.9000,-8.34524,301.345
238.8000,-8.50054,301.673
238.7000,-8.6464,302.007
238.6000,-8.85393,302.34
238.5000,-9.06017,302.681
238.4000,-9.23572,303.03
238.3000,-9.44454,303.387
238.2000,-9.6628,303.75
238.1000,-9.83997,304.123
238.0000,-10.0114,304.501
237.9000,-10.2103,304.884
237.8000,-10.4433,305.278
237.7000,-10.6219,305.681
237.6000,-10.8425,306.095
237.5000,-11.0521,306.513
237.4000,-11.2092,306.943
237.3000,-11.3922,307.381
237.2000,-11.6165,307.824
237.1000,-11.8599,308.277
237.0000,-12.0805,308.742
236.9000,-12.3149,309.214
236.8000,-12.5278,309.694
236.7000,-12.75,310.184
236.6000,-12.982,310.673
236.5000,-13.2775,311.161
236.4000,-13.5372,311.662
236.3000,-13.7635,312.172
236.2000,-14.0252,312.698
236.1000,-14.2593,313.225
236.0000,-14.4947,313.766
235.9000,-14.7509,314.315
235.8000,-15.0225,314.882
235.7000,-15.2922,315.462
235.6000,-15.5297,316.057
235.5000,-15.8228,316.664
235.4000,-16.0591,317.276
235.3000,-16.2841,317.897
235.2000,-16.5626,318.528
235.1000,-16.897,319.166
235.0000,-17.2369,319.809
234.9000,-17.5581,320.463
234.8000,-17.8578,321.131
234.7000,-18.1544,321.807
234.6000,-18.4651,322.494
234.5000,-18.7792,323.194
234.4000,-19.1147,323.905
234.3000,-19.4045,324.623
234.2000,-19.6683,325.352
234.1000,-19.8964,326.096
234.0000,-20.1994,326.844
233.9000,-20.4974,327.604
233.8000,-20.7976,328.372
233.7000,-21.1032,329.148
233.6000,-21.4514,329.934
233.5000,-21.7473,330.735
233.4000,-22.0213,331.544
233.3000,-22.3288,332.359
233.2000,-22.6608,333.193
233.1000,-23.0036,334.03
233.0000,-23.3503,334.872
232.9000,-23.743,335.72
232.8000,-24.0758,336.579
232.7000,-24.4077,337.44
232.6000,-24.7648,338.307
232.5000,-25.1252,339.186
232.4000,-25.4567,340.061
232.3000,-25.7758,340.933
232.2000,-26.1028,341.81
232.1000,-26.4259,342.699
232.0000,-26.7096,343.592
231.9000,-27.0592,344.49
231.8000,-27.3964,345.392
231.7000,-27.7608,346.301
231.6000,-28.0748,347.227
231.5000,-28.3975,348.159
231.4000,-28.7613,349.102
231.3000,-29.1085,350.047
231.2000,-29.5394,350.997
231.1000,-29.9053,351.947
231.0000,-30.3177,352.896
230.9000,-30.7136,353.848
230.8000,-31.0941,354.789
230.7000,-31.5274,355.729
230.6000,-31.9451,356.663
230.5000,-32.3583,357.604
230.4000,-32.7374,358.53
230.3000,-33.1529,359.452
230.2000,-33.5778,360.368
230.1000,-34.0353,361.284
230.0000,-34.5429,362.191
229.9000,-35.1052,363.087
229.8000,-35.5794,363.994
229.7000,-36.0733,364.891
229.6000,-36.5527,365.795
229.5000,-37.0304,366.701
229.4000,-37.5169,367.612
229.3000,-37.9976,368.532
229.2000,-38.4342,369.454
229.1000,-38.845,370.381
229.0000,-39.2973,371.315
228.9000,-39.7579,372.234
228.8000,-40.2435,373.148
228.7000,-40.7752,374.064
228.6000,-41.3289,374.975
228.5000,-41.7883,375.873
228.4000,-42.2707,376.765
228.3000,-42.7552,377.659
228.2000,-43.3144,378.534
228.1000,-43.9048,379.418
228.0000,-44.4238,380.301
227.9000,-44.9438,381.167
227.8000,-45.4367,382.026
227.7000,-45.9415,382.885
227.6000,-46.5488,383.739
227.5000,-47.1347,384.583
227.4000,-47.688,385.42
227.3000,-48.2142,386.257
227.2000,-48.7749,387.084
227.1000,-49.281,387.914
227.0000,-49.7337,388.737
226.9000,-50.2519,389.551
226.8000,-50.7719,390.37
226.7000,-51.288,391.186
226.6000,-51.737,392.005
226.5000,-52.1252,392.816
226.4000,-52.5108,393.625
226.3000,-52.949,394.429
226.2000,-53.518,395.238
226.1000,-54.0392,396.054
226.0000,-54.5044,396.861
225.9000,-54.9649,397.666
225.8000,-55.5295,398.473
225.7000,-56.1017,399.277
225.6000,-56.6844,400.08
225.5000,-57.1151,400.896
225.4000,-57.5255,401.703
225.3000,-57.9651,402.513
225.2000,-58.4107,403.324
225.1000,-58.8154,404.13
225.0000,-59.2271,404.93
224.9000,-59.5947,405.734
224.8000,-59.9437,406.539
224.7000,-60.4164,407.331
224.6000,-60.9369,408.123
224.5000,-61.3437,408.916
224.4000,-61.7479,409.708
224.3000,-62.2088,410.505
224.2000,-62.5058,411.312
224.1000,-62.8428,412.118
224.0000,-63.298,412.921
223.9000,-63.6623,413.731
223.8000,-63.9362,414.542
223.7000,-64.2719,415.351
223.6000,-64.5218,416.157
223.5000,-64.814,416.959
223.4000,-65.1639,417.761
223.3000,-65.5199,418.557
223.2000,-65.8761,419.349
223.1000,-66.1743,420.146
223.0000,-66.4873,420.944
222.9000,-66.7646,421.744
222.8000,-67.115,422.542
222.7000,-67.4157,423.346
222.6000,-67.5122,424.153
222.5000,-67.8011,424.952
222.4000,-68.0069,425.759
222.3000,-68.2175,426.567
222.2000,-68.334,427.375
222.1000,-68.556,428.18
222.0000,-68.7508,428.993
221.9000,-68.9546,429.801
221.8000,-69.2297,430.608
221.7000,-69.4909,431.425
221.6000,-69.7468,432.245
221.5000,-70.0223,433.066
221.4000,-70.3899,433.881
221.3000,-70.6001,434.697
221.2000,-70.8284,435.509
221.1000,-71.0776,436.326
221.0000,-71.3432,437.142
220.9000,-71.5112,437.962
220.8000,-71.6775,438.781
220.7000,-71.8631,439.594
220.6000,-71.9576,440.408
220.5000,-72.2145,441.221
220.4000,-72.3761,442.036
220.3000,-72.3842,442.855
220.2000,-72.4106,443.68
220.1000,-72.4399,444.506
220.0000,-72.4315,445.339
219.9000,-72.3923,446.181
219.8000,-72.4061,447.03
219.7000,-72.2272,447.891
219.6000,-72.0746,448.744
219.5000,-72.0941,449.598
219.4000,-72.125,450.461
219.3000,-72.2621,451.314
219.2000,-72.4944,452.162
219.1000,-72.7433,453.005
219.0000,-72.8517,453.853
218.9000,-73.034,454.691
218.8000,-73.2578,455.541
218.7000,-73.3583,456.398
218.6000,-73.3841,457.258
218.5000,-73.4652,458.113
218.4000,-73.2422,458.975
218.3000,-72.9091,459.838
218.2000,-72.7192,460.7
218.1000,-72.6292,461.564
218.0000,-72.4713,462.441
217.9000,-72.4026,463.319
217.8000,-72.3331,464.194
217.7000,-72.2008,465.073
217.6000,-72.2607,465.945
217.5000,-72.2813,466.836
217.4000,-72.3955,467.73
217.3000,-72.3814,468.638
217.2000,-72.321,469.561
217.1000,-72.3042,470.488
217.0000,-72.1235,471.422
216.9000,-72.0434,472.367
216.8000,-71.9378,473.324
216.7000,-71.8743,474.29
216.6000,-71.6864,475.274
216.5000,-71.4523,476.265
216.4000,-71.1803,477.26
216.3000,-70.9754,478.257
216.2000,-70.958,479.27
216.1000,-70.9418,480.3
216.0000,-70.9713,481.341
215.9000,-71.0147,482.399
215.8000,-71.1484,483.465
215.7000,-71.0661,484.559
215.6000,-71.0307,485.663
215.5000,-70.9833,486.797
215.4000,-70.953,487.953
215.3000,-70.8147,489.12
215.2000,-70.5837,490.303
215.1000,-70.2834,491.506
215.0000,-70.0378,492.718
214.9000,-69.9296,493.939
214.8000,-69.8731,495.173
214.7000,-69.8676,496.417
214.6000,-69.7313,497.665
214.5000,-69.3216,498.937
214.4000,-69.1106,500.232
214.3000,-69.0772,501.542
214.2000,-69.1561,502.862
214.1000,-69.0795,504.217
214.0000,-68.942,505.603
213.9000,-68.8594,507.02
213.8000,-68.7369,508.468
213.7000,-68.8286,509.932
213.6000,-68.8268,511.427
213.5000,-68.6853,512.948
213.4000,-68.5032,514.501
213.3000,-68.1748,516.08
213.2000,-67.9202,517.668
213.1000,-67.8495,519.266
213.0000,-67.6935,520.88
212.9000,-67.2915,522.536
212.8000,-67.0562,524.203
212.7000,-66.7524,525.89
212.6000,-66.513,527.607
212.5000,-66.4263,529.361
212.4000,-66.5308,531.135
212.3000,-66.5285,532.939
212.2000,-66.3445,534.778
212.1000,-66.2776,536.644
212.0000,-66.357,538.543
211.9000,-66.2778,540.485
211.8000,-66.1629,542.45
211.7000,-65.9895,544.429
211.6000,-65.643,546.438
211.5000,-65.1594,548.482
211.4000,-65.0149,550.548
211.3000,-64.9165,552.651
211.2000,-64.9798,554.756
211.1000,-65.129,556.88
211.0000,-65.3712,559.048
210.9000,-65.5344,561.253
210.8000,-65.8086,563.499
210.7000,-66.0512,565.778
210.6000,-66.2921,568.097
210.5000,-66.9299,570.449
210.4000,-67.4116,572.847
210.3000,-67.4798,575.32
210.2000,-67.4399,577.821
210.1000,-67.5194,580.373
210.0000,-67.1701,582.983
209.9000,-67.1253,585.631
209.8000,-67.069,588.336
209.7000,-66.6429,591.092
209.6000,-65.8203,593.922
209.5000,-65.3515,596.804
209.4000,-64.7297,599.756
209.3000,-64.1257,602.753
209.2000,-63.9135,605.795
209.1000,-63.5521,608.904
209.0000,-63.4996,612.061
208.9000,-63.0112,615.298
208.8000,-62.6625,618.589
208.7000,-62.5491,621.934
208.6000,-62.36,625.364
208.5000,-62.4405,628.851
208.4000,-62.2202,632.398
208.3000,-61.721,636.013
208.2000,-61.8125,639.679
208.1000,-61.8306,643.398
208.0000,-61.1224,647.19
207.9000,-60.6638,651.036
207.8000,-60.1667,654.925
207.7000,-60.1328,658.863
207.6000,-59.8536,662.879
207.5000,-59.5034,666.979
207.4000,-58.7657,671.151
207.3000,-57.1913,675.413
207.2000,-56.214,679.746
207.1000,-56.2603,684.114
207.0000,-56.1054,688.555
206.9000,-56.3884,693.032
206.8000,-56.3392,697.58
206.7000,-56.3661,702.18
206.6000,-56.267,706.835
206.5000,-55.932,711.557
206.4000,-55.7341,716.328
206.3000,-54.7804,721.172
206.2000,-53.0236,726.069
206.1000,-51.1893,731.024
206.0000,-49.662,736.012
205.9000,-48.0489,741.044
205.8000,-46.403,746.133
205.7000,-44.1465,751.267
205.6000,-43.0307,756.401
205.5000,-42.0486,761.545
205.4000,-41.8339,766.708
205.3000,-40.9955,771.925
205.2000,-40.6711,777.157
205.1000,-40.5461,782.399
205.0000,-39.8233,787.648
204.9000,-39.1733,792.889
204.8000,-37.4865,798.153
204.7000,-37.4995,803.365
204.6000,-36.8015,808.569
204.5000,-37.2062,813.693
204.4000,-38.1096,818.763
204.3000,-36.7676,823.842
204.2000,-33.9787,828.914
204.1000,-34.6753,833.81
204.0000,-34.517,838.679
203.9000,-31.7692,843.523
203.8000,-28.0601,848.307
203.7000,-23.6155,853.025
203.6000,-15.1509,857.748
203.5000,-9.83558,862.248
203.4000,-7.14685,866.538
203.3000,-4.299,870.713
203.2000,-3.05787,874.721
203.1000,-3.02916,878.56
203.0000,-6.04054,882.162
202.9000,-5.33284,885.743
202.8000,-8.817,889.063
202.7000,-10.9996,892.292
202.6000,-12.6324,895.398
202.5000,-14.4929,898.359
202.4000,-16.9804,901.137
202.3000,-17.5768,903.825
202.2000,-16.3664,906.404
202.1000,-13.3334,908.946
202.0000,-9.44304,911.359
201.9000,-10.069,913.524
201.8000,-13.4351,915.09
201.7000,-14.0687,910.388
201.6000,-13.3736,905.366
201.5000,-11.405,898.99
201.4000,-8.65411,887.221
201.3000,-9.93157,878.308
201.2000,-13.1228,883.177
201.1000,-12.0317,892.346
201.0000,-9.94451,901.442
200.9000,-5.47597,914.842
200.8000,-2.62559,930.764
200.7000,-1.37981,947.688
200.6000,-0.428959,966.852
200.5000,3.64765,987.397
200.4000,6.19005,997.558
200.3000,7.7006,997.893
200.2000,15.1869,998.236
200.1000,19.8105,998.486
200.0000,20.3264,998.593
199.9000,18.8645,998.562
199.8000,20.2392,998.68
199.7000,15.0119,998.525
199.6000,12.821,998.457
199.5000,9.22747,998.397
199.4000,0.373163,998.144
199.3000,-5.07452,997.989
199.2000,-4.42576,997.973
199.1000,-0.549976,998.028
199.0000,1.06599,998.039
198.9000,3.92356,998.143
198.8000,6.15077,998.212
198.7000,8.11142,998.222
198.6000,5.3136,998.112
198.5000,8.60714,998.147
198.4000,9.57483,997.485
198.3000,11.5095,996.405
198.2000,7.05173,996.87
198.1000,7.34889,997.418
198.0000,4.5882,997.951
197.9000,1.50681,998.458
197.8000,4.14294,999.136
197.7000,3.23559,999.684
197.6000,-2.05203,1000.2
197.5000,-3.35006,1002.56
197.4000,-0.521488,1002.69
197.3000,-5.63157,1002.48
197.2000,-6.65664,1002.38
197.1000,-5.72744,1002.32
197.0000,2.30724,1002.4
196.9000,8.60058,1002.43
196.8000,12.1038,1002.36
196.7000,10.445,1002.13
196.6000,7.01455,1001.85
196.5000,8.26638,1001.61
196.4000,15.0283,1000.8
196.3000,16.8473,996.795
196.2000,14.4493,997.339
196.1000,9.95545,995.887
196.0000,11.2091,996.904
195.9000,15.7737,997.502
195.8000,22.8131,997.829
195.7000,21.1947,999.686
195.6000,20.023,1001
195.5000,20.2641,1005.44
195.4000,18.871,1007.81
195.3000,15.5792,1005.96
195.2000,5.91537,1008.85
195.1000,-4.59077,1010.59
195.0000,-12.2783,1014.69
194.9000,-13.3986,1016.28
194.8000,-13.5357,1017.81
194.7000,-12.6782,1021.45
194.6000,-3.89919,1022.73
194.5000,2.10539,1023.93
194.4000,5.19916,1026.37
194.3000,5.71385,1026.15
194.2000,7.94362,1025.74
194.1000,5.45655,1025.03
194.0000,0.697214,1024.14
193.9000,1.6675,1023.35
193.8000,0.929515,1022.45
193.7000,-2.49169,1021.54
193.6000,-0.574192,1022.36
193.5000,9.23399,1021.24
193.4000,16.5367,1019.99
193.3000,21.8926,1018.73
193.2000,29.188,1017.6
193.1000,29.4452,1016.22
193.0000,21.3572,1014.66
192.9000,14.3694,1013.27
192.8000,17.3522,1012.19
192.7000,19.0892,1011.11
192.6000,16.8643,1010
192.5000,12.516,1008.76
192.4000,10.0647,1007.6
192.3000,4.96886,1006.39
192.2000,9.3192,1005.48
192.1000,15.2911,1004.69
192.0000,14.2813,1003.73
191.9000,10.5453,1002.68
191.8000,7.58029,1001.73
191.7000,9.26297,1000.97
191.6000,3.07713,999.188
191.5000,4.20653,997.205
191.4000,4.96418,996.929
191.3000,0.181907,996.634
191.2000,-5.83358,996.31
191.1000,-14.568,995.9
191.0000,-15.3873,995.802
190.9000,-14.8994,995.733
190.8000,-9.25025,995.923
190.7000,-5.73271,998.121
190.6000,-6.61185,997.685
190.5000,-2.96971,997.227
190.4000,0.80496,996.801
190.3000,13.7554,996.679
190.2000,20.5057,996.311
190.1000,19.7518,995.723
190.0000,22.3444,995.233

##### Extended Information
[Comments]
Sample name,Dl121-D87A-1
Comment,Dark
User
Division
Company,UT Southwestern Medical Center at Dallas

[Detailed Information]
Creation date,2/9/2023 2:22 PM

Data array type,Linear data array * 2
Horizontal axis,Wavelength [nm]
Vertical axis(1),CD [mdeg]
Vertical axis(2),HT [V]
Start,260 nm
End,190 nm
Data interval,0.1 nm
Data points,701     

[Measurement Information]
Instrument name,Jasco CD
Model name,J-815
Serial No.,B064061168

Accessory,CDF-426S
Accessory S/N,A00861183
  Temperature,14.99 C
  Control sonsor,Holder
  Monitor sensor,Holder
  Start Mode,Keep target temperature +/-0.10 deg C while 5 seconds
  Cell length,10 mm

Measurement date,2/9/2023 2:22 PM

Photometric mode,CD, HT
Measure range,260 - 190 nm
Data pitch,0.1 nm
Sensitivity,Standard
D.I.T.,1 sec
Bandwidth,1.00 nm
Start mode,Immediately
Scanning speed,50 nm/min
Baseline correction,None
Shutter control,Manual
CD detector,PMT
PMT voltage,Auto
Accumulations,10

Concentration,0.02 (w/v)%

