TITLE,DL121
DATA TYPE,
ORIGIN,JASCO
OWNER,
DATE,22/08/08
TIME,10:55:05
SPECTROMETER/DATA SYSTEM,
LOCALE,1033
RESOLUTION,
DELTAX,-0.1
XUNITS,NANOMETERS
YUNITS,CD [mdeg]
Y2UNITS,HT [V]
FIRSTX,  260.0000
LASTX,  190.0000
NPOINTS,     701
FIRSTY,    -0.51241
MAXY,    48.38503
MINY,   -53.78439
XYDATA
260.0000,-0.512411,274.058
259.9000,-0.546072,274.103
259.8000,-0.595386,274.152
259.7000,-0.627054,274.21
259.6000,-0.572867,274.275
259.5000,-0.568011,274.332
259.4000,-0.523297,274.393
259.3000,-0.521149,274.446
259.2000,-0.47316,274.495
259.1000,-0.471326,274.55
259.0000,-0.476358,274.609
258.9000,-0.417166,274.667
258.8000,-0.452539,274.715
258.7000,-0.522055,274.768
258.6000,-0.57937,274.809
258.5000,-0.605963,274.847
258.4000,-0.658804,274.89
258.3000,-0.666483,274.93
258.2000,-0.62894,274.975
258.1000,-0.663919,275.018
258.0000,-0.749969,275.05
257.9000,-0.760687,275.101
257.8000,-0.749225,275.128
257.7000,-0.697345,272.069
257.6000,-0.630896,269.404
257.5000,-0.583926,266.899
257.4000,-0.547769,264.466
257.3000,-0.480103,262.049
257.2000,-0.369382,259.652
257.1000,-0.232208,257.258
257.0000,-0.110852,254.859
256.9000,-0.0461304,256.102
256.8000,-0.0703552,258.922
256.7000,-0.131741,261.52
256.6000,-0.241006,264.027
256.5000,-0.362457,266.493
256.4000,-0.448721,268.95
256.3000,-0.550345,271.409
256.2000,-0.6466,273.868
256.1000,-0.822412,275.639
256.0000,-0.90687,275.691
255.9000,-0.899805,275.731
255.8000,-0.86416,275.771
255.7000,-0.792224,275.815
255.6000,-0.760339,275.863
255.5000,-0.789871,275.903
255.4000,-0.83049,275.935
255.3000,-0.839148,275.965
255.2000,-0.796832,276.008
255.1000,-0.86535,276.053
255.0000,-0.887942,276.108
254.9000,-0.940274,276.161
254.8000,-1.03004,276.199
254.7000,-1.02761,276.243
254.6000,-1.0302,276.283
254.5000,-1.02639,276.328
254.4000,-1.03896,276.373
254.3000,-1.04723,276.43
254.2000,-1.03445,276.474
254.1000,-1.00635,276.517
254.0000,-0.939026,276.567
253.9000,-0.917401,276.615
253.8000,-0.859399,276.654
253.7000,-0.858499,276.711
253.6000,-0.880475,276.766
253.5000,-0.929962,276.813
253.4000,-0.989587,276.862
253.3000,-1.01977,276.914
253.2000,-0.998892,276.952
253.1000,-0.98371,276.993
253.0000,-0.974615,277.041
252.9000,-0.930618,277.102
252.8000,-0.824969,277.116
252.7000,-0.706476,273.874
252.6000,-0.5448,271.076
252.5000,-0.413208,268.449
252.4000,-0.354199,265.906
252.3000,-0.276144,263.395
252.2000,-0.279526,260.89
252.1000,-0.310101,258.382
252.0000,-0.254147,255.873
251.9000,-0.248749,257.249
251.8000,-0.334305,260.225
251.7000,-0.422882,262.982
251.6000,-0.528241,265.636
251.5000,-0.635071,268.244
251.4000,-0.669513,270.84
251.3000,-0.65769,273.426
251.2000,-0.700034,276.01
251.1000,-0.758838,277.857
251.0000,-0.795334,277.916
250.9000,-0.83223,277.97
250.8000,-0.814529,278.021
250.7000,-0.808298,278.083
250.6000,-0.83035,278.142
250.5000,-0.81474,278.195
250.4000,-0.923691,278.252
250.3000,-0.99223,278.303
250.2000,-1.1326,278.366
250.1000,-1.18258,278.407
250.0000,-1.18011,278.457
249.9000,-1.18398,278.513
249.8000,-1.26145,278.562
249.7000,-1.3511,278.625
249.6000,-1.36428,278.681
249.5000,-1.42137,278.725
249.4000,-1.47187,278.775
249.3000,-1.50155,278.832
249.2000,-1.55002,278.887
249.1000,-1.66248,278.935
249.0000,-1.72022,278.978
248.9000,-1.71633,279.017
248.8000,-1.76205,279.055
248.7000,-1.82004,279.115
248.6000,-1.83097,279.18
248.5000,-1.73243,279.252
248.4000,-1.69496,279.329
248.3000,-1.67042,279.39
248.2000,-1.61999,279.462
248.1000,-1.60718,279.54
248.0000,-1.6714,279.62
247.9000,-1.64169,279.698
247.8000,-1.55388,279.712
247.7000,-1.45956,276.232
247.6000,-1.35696,273.263
247.5000,-1.24103,270.484
247.4000,-1.16503,267.791
247.3000,-1.0877,265.124
247.2000,-0.957489,262.48
247.1000,-0.824106,259.842
247.0000,-0.745917,257.208
246.9000,-0.795792,258.783
246.8000,-0.969266,261.99
246.7000,-1.22966,264.957
246.6000,-1.3721,267.825
246.5000,-1.46378,270.657
246.4000,-1.66608,273.463
246.3000,-1.85917,276.256
246.2000,-1.9597,279.056
246.1000,-2.06898,281.046
246.0000,-2.11337,281.14
245.9000,-2.20418,281.226
245.8000,-2.42433,281.303
245.7000,-2.6313,281.375
245.6000,-2.70936,281.458
245.5000,-2.77234,281.549
245.4000,-2.83214,281.637
245.3000,-2.86576,281.739
245.2000,-2.92393,281.847
245.1000,-2.89206,281.947
245.0000,-2.73487,282.051
244.9000,-2.69247,282.161
244.8000,-2.66787,282.269
244.7000,-2.65919,282.382
244.6000,-2.75345,282.503
244.5000,-2.92568,282.606
244.4000,-3.10948,282.704
244.3000,-3.27021,282.799
244.2000,-3.49237,282.904
244.1000,-3.60135,283.026
244.0000,-3.72634,283.137
243.9000,-3.85521,283.247
243.8000,-3.94105,283.357
243.7000,-3.98033,283.468
243.6000,-4.0222,283.588
243.5000,-3.98499,283.71
243.4000,-3.93611,283.848
243.3000,-3.94532,283.981
243.2000,-4.03513,284.118
243.1000,-4.08849,284.256
243.0000,-4.10199,284.396
242.9000,-4.18173,284.542
242.8000,-4.20535,284.636
242.7000,-4.21725,280.761
242.6000,-4.05413,277.54
242.5000,-3.84458,274.503
242.4000,-3.55043,271.546
242.3000,-3.26773,268.625
242.2000,-3.05759,265.709
242.1000,-2.86114,262.792
242.0000,-2.64787,259.87
241.9000,-2.58701,261.803
241.8000,-2.85148,265.485
241.7000,-3.27095,268.916
241.6000,-3.67139,272.247
241.5000,-4.02771,275.538
241.4000,-4.45814,278.824
241.3000,-4.8448,282.111
241.2000,-5.21172,285.41
241.1000,-5.68354,287.763
241.0000,-5.93685,287.966
240.9000,-6.03186,288.16
240.8000,-6.20781,288.352
240.7000,-6.4334,288.56
240.6000,-6.54094,288.772
240.5000,-6.73661,288.988
240.4000,-6.98846,289.202
240.3000,-7.14861,289.42
240.2000,-7.24865,289.644
240.1000,-7.34422,289.87
240.0000,-7.44873,290.109
239.9000,-7.5418,290.345
239.8000,-7.70689,290.582
239.7000,-7.91064,290.834
239.6000,-7.96341,291.099
239.5000,-8.11228,291.364
239.4000,-8.21575,291.629
239.3000,-8.31968,291.908
239.2000,-8.5532,292.193
239.1000,-8.71544,292.477
239.0000,-8.87626,292.773
238.9000,-9.05007,293.073
238.8000,-9.23796,293.364
238.7000,-9.25878,293.671
238.6000,-9.37611,293.98
238.5000,-9.49817,294.294
238.4000,-9.57781,294.608
238.3000,-9.669,294.933
238.2000,-9.8388,295.253
238.1000,-9.93473,295.577
238.0000,-10.1323,295.901
237.9000,-10.4323,296.24
237.8000,-10.6932,296.508
237.7000,-10.4278,291.678
237.6000,-9.89986,287.669
237.5000,-9.28654,283.861
237.4000,-8.56687,280.135
237.3000,-7.87307,276.429
237.2000,-7.13863,272.725
237.1000,-6.30193,269.002
237.0000,-5.49886,265.252
236.9000,-5.20179,267.875
236.8000,-5.79317,272.84
236.7000,-6.72791,277.53
236.6000,-7.76416,282.121
236.5000,-8.89214,286.681
236.4000,-9.992,291.25
236.3000,-11.1233,295.855
236.2000,-12.37,300.482
236.1000,-13.5419,303.835
236.0000,-14.2077,304.328
235.9000,-14.5331,304.804
235.8000,-14.6561,305.293
235.7000,-14.8698,305.786
235.6000,-15.0864,306.293
235.5000,-15.281,306.8
235.4000,-15.2074,307.333
235.3000,-15.2168,307.88
235.2000,-15.364,308.423
235.1000,-15.6235,308.968
235.0000,-16.036,309.511
234.9000,-16.3161,310.068
234.8000,-16.5303,310.643
234.7000,-16.8348,311.219
234.6000,-17.1894,311.794
234.5000,-17.5122,312.381
234.4000,-17.8064,312.977
234.3000,-18.079,313.569
234.2000,-18.2636,314.181
234.1000,-18.3795,314.82
234.0000,-18.6558,315.446
233.9000,-18.8406,316.079
233.8000,-18.9934,316.734
233.7000,-19.3292,317.396
233.6000,-19.6765,318.065
233.5000,-19.877,318.751
233.4000,-20.0754,319.454
233.3000,-20.3726,320.149
233.2000,-20.4967,320.852
233.1000,-20.7192,321.584
233.0000,-21.0594,322.311
232.9000,-21.2575,323.04
232.8000,-21.4699,323.685
232.7000,-20.7818,315.698
232.6000,-19.31,309.385
232.5000,-17.5507,303.3
232.4000,-15.6816,297.295
232.3000,-13.7602,291.266
232.2000,-11.7145,285.193
232.1000,-9.69439,279.072
232.0000,-7.64275,272.868
231.9000,-6.55863,277.41
231.8000,-7.69088,285.539
231.7000,-9.72077,293.228
231.6000,-12.099,300.823
231.5000,-14.6464,308.41
231.4000,-17.2771,316.046
231.3000,-19.7883,323.742
231.2000,-22.2825,331.503
231.1000,-24.6156,337.127
231.0000,-25.8524,337.925
230.9000,-26.3693,338.703
230.8000,-26.6011,339.485
230.7000,-26.7824,340.273
230.6000,-26.9535,341.049
230.5000,-27.2507,341.812
230.4000,-27.7201,342.565
230.3000,-28.1541,343.319
230.2000,-28.5911,344.061
230.1000,-28.7394,344.818
230.0000,-29.1386,345.555
229.9000,-29.4561,346.283
229.8000,-29.6988,347.018
229.7000,-30.0101,347.765
229.6000,-30.2574,348.522
229.5000,-30.5724,349.28
229.4000,-30.6816,350.047
229.3000,-31.1346,350.82
229.2000,-31.4709,351.599
229.1000,-31.972,352.384
229.0000,-32.6216,353.174
228.9000,-33.1711,353.959
228.8000,-33.6527,354.744
228.7000,-33.9361,355.537
228.6000,-34.3277,356.327
228.5000,-34.796,357.092
228.4000,-35.1559,357.85
228.3000,-35.6452,358.6
228.2000,-35.7581,359.344
228.1000,-35.8233,360.111
228.0000,-35.8951,360.866
227.9000,-36.3019,361.602
227.8000,-36.8167,362.186
227.7000,-35.4687,344.719
227.6000,-32.4133,333.918
227.5000,-28.7429,323.803
227.4000,-24.9579,313.77
227.3000,-21.1807,303.707
227.2000,-17.4155,293.587
227.1000,-13.263,283.426
227.0000,-9.0778,273.194
226.9000,-6.62986,281.709
226.8000,-8.42182,296.995
226.7000,-11.8588,308.678
226.6000,-15.8514,320.218
226.5000,-20.2141,331.727
226.4000,-24.7042,343.266
226.3000,-29.331,354.851
226.2000,-33.9446,366.501
226.1000,-38.3577,374.76
226.0000,-40.7392,375.465
225.9000,-41.6652,376.131
225.8000,-42.1854,376.795
225.7000,-42.5946,377.46
225.6000,-43.0139,378.141
225.5000,-43.4736,378.822
225.4000,-43.91,379.492
225.3000,-44.2564,380.188
225.2000,-44.3891,380.889
225.1000,-44.6788,381.568
225.0000,-45.2998,382.239
224.9000,-45.7736,382.919
224.8000,-46.1998,383.595
224.7000,-46.3376,384.29
224.6000,-46.412,384.972
224.5000,-46.4979,385.656
224.4000,-46.513,386.331
224.3000,-46.7687,387.006
224.2000,-47.1091,387.699
224.1000,-47.3269,388.386
224.0000,-47.3755,389.076
223.9000,-47.7192,389.75
223.8000,-47.8362,390.437
223.7000,-47.8905,391.136
223.6000,-48.017,391.836
223.5000,-48.5616,392.527
223.4000,-49.0616,393.213
223.3000,-49.224,393.898
223.2000,-49.7304,394.581
223.1000,-50.0343,395.256
223.0000,-50.141,395.953
222.9000,-51.0967,396.619
222.8000,-52.0319,397.096
222.7000,-49.5941,373.354
222.6000,-44.6497,347.34
222.5000,-39.2004,333.196
222.4000,-33.4053,319.212
222.3000,-27.5432,305.231
222.2000,-21.7982,291.19
222.1000,-15.8149,277.091
222.0000,-9.49438,262.928
221.9000,-6.06122,271.414
221.8000,-8.61003,305.083
221.7000,-13.2854,321.081
221.6000,-18.6,336.538
221.5000,-24.3034,351.982
221.4000,-30.2561,367.435
221.3000,-36.277,382.939
221.2000,-42.0639,398.516
221.1000,-47.3775,409.436
221.0000,-50.1122,410.183
220.9000,-51.0846,410.851
220.8000,-51.6484,411.526
220.7000,-51.895,412.195
220.6000,-52.0195,412.877
220.5000,-51.874,413.586
220.4000,-51.8171,414.279
220.3000,-52.0303,414.965
220.2000,-52.2151,415.655
220.1000,-52.0243,416.363
220.0000,-52.1866,417.047
219.9000,-51.9849,417.743
219.8000,-51.8041,418.438
219.7000,-52.1373,419.108
219.6000,-52.5102,419.787
219.5000,-52.6397,420.487
219.4000,-52.5009,421.231
219.3000,-52.7406,421.948
219.2000,-52.7701,422.653
219.1000,-52.9313,423.365
219.0000,-53.1192,424.072
218.9000,-53.3045,424.785
218.8000,-53.1648,425.516
218.7000,-53.3701,426.235
218.6000,-53.4551,426.949
218.5000,-53.4541,427.676
218.4000,-53.6701,428.411
218.3000,-53.7844,429.141
218.2000,-53.7324,429.884
218.1000,-53.4405,430.625
218.0000,-53.5857,431.356
217.9000,-53.4309,432.115
217.8000,-53.1303,432.628
217.7000,-50.3602,406.427
217.6000,-44.9285,363.717
217.5000,-38.9459,344.365
217.4000,-32.8818,326.226
217.3000,-26.8065,308.077
217.2000,-20.6121,289.895
217.1000,-14.2856,271.634
217.0000,-8.24811,253.285
216.9000,-4.97562,261.853
216.8000,-7.51667,305.254
216.7000,-12.0995,333.55
216.6000,-17.4199,353.404
216.5000,-23.3061,373.223
216.4000,-29.4197,393.071
216.3000,-35.4791,412.997
216.2000,-41.1702,433.028
216.1000,-46.7346,447.032
216.0000,-49.452,448.006
215.9000,-50.7759,448.82
215.8000,-51.5736,449.671
215.7000,-51.7945,450.545
215.6000,-51.1051,451.472
215.5000,-50.3674,452.409
215.4000,-50.1731,453.325
215.3000,-49.8589,454.267
215.2000,-49.5579,455.198
215.1000,-48.9613,456.173
215.0000,-48.3387,457.158
214.9000,-48.3564,458.123
214.8000,-48.9446,459.09
214.7000,-49.4784,460.073
214.6000,-49.4198,461.103
214.5000,-49.473,462.142
214.4000,-49.7013,463.196
214.3000,-49.6043,464.257
214.2000,-49.4621,465.325
214.1000,-49.3737,466.432
214.0000,-48.6243,467.564
213.9000,-48.3454,468.711
213.8000,-48.6185,469.875
213.7000,-48.6953,471.057
213.6000,-48.51,472.277
213.5000,-48.8904,473.507
213.4000,-49.6999,474.742
213.3000,-49.9665,476.01
213.2000,-50.685,477.309
213.1000,-50.8453,478.661
213.0000,-50.7259,480.02
212.9000,-50.5212,481.393
212.8000,-50.8927,482.456
212.7000,-48.1035,453.207
212.6000,-42.8629,402.813
212.5000,-37.0151,368.214
212.4000,-30.9486,344.192
212.3000,-25.0566,320.096
212.2000,-19.1681,295.868
212.1000,-13.4745,271.501
212.0000,-7.62012,246.97
211.9000,-3.9798,255.949
211.8000,-6.51209,305.586
211.7000,-11.217,353.047
211.6000,-17.1788,380.562
211.5000,-22.6545,407.966
211.4000,-27.6929,435.535
211.3000,-33.051,463.269
211.2000,-38.3422,491.218
211.1000,-43.612,511.058
211.0000,-45.9172,513.094
210.9000,-46.2105,514.87
210.8000,-45.563,516.715
210.7000,-45.0318,518.571
210.6000,-45.0432,520.433
210.5000,-45.51,522.336
210.4000,-45.4553,524.264
210.3000,-45.9864,526.184
210.2000,-47.4593,528.11
210.1000,-48.8832,530.085
210.0000,-50.1665,532.083
209.9000,-50.8656,534.136
209.8000,-51.0626,536.263
209.7000,-50.1673,538.48
209.6000,-49.7758,540.721
209.5000,-48.0756,543.064
209.4000,-46.9961,545.422
209.3000,-46.6881,547.791
209.2000,-46.6673,550.212
209.1000,-45.3335,552.716
209.0000,-45.5518,555.191
208.9000,-47.2069,557.668
208.8000,-47.3453,560.25
208.7000,-47.3613,562.887
208.6000,-45.7519,565.651
208.5000,-43.9478,568.48
208.4000,-41.2702,571.389
208.3000,-40.0895,574.314
208.2000,-40.1536,577.293
208.1000,-37.8598,580.421
208.0000,-36.8968,583.527
207.9000,-38.0464,586.635
207.8000,-40.1846,589.284
207.7000,-39.2665,553.475
207.6000,-36.1931,492.201
207.5000,-31.7669,433.908
207.4000,-26.9786,396.992
207.3000,-22.077,360.051
207.2000,-17.9003,322.738
207.1000,-12.4637,285.11
207.0000,-6.71281,247.08
206.9000,-2.88388,256.653
206.8000,-4.68971,320.474
206.7000,-8.39267,393.707
206.6000,-11.8051,440.367
206.5000,-16.0067,484.983
206.4000,-20.3492,530
206.3000,-24.1759,575.499
206.2000,-28.9564,621.431
206.1000,-32.5411,655.224
206.0000,-34.9137,659.888
205.9000,-36.7602,663.822
205.8000,-39.8283,667.704
205.7000,-41.8224,671.647
205.6000,-42.5993,675.657
205.5000,-38.96,679.843
205.4000,-37.1938,683.993
205.3000,-36.964,688.183
205.2000,-35.8002,692.459
205.1000,-29.7027,696.988
205.0000,-24.4296,701.558
204.9000,-19.8894,706.187
204.8000,-14.661,710.922
204.7000,-11.5056,715.645
204.6000,-9.0187,720.4
204.5000,-3.84331,725.261
204.4000,0.729034,730.089
204.3000,0.515161,734.78
204.2000,1.31538,739.496
204.1000,3.21823,744.242
204.0000,7.04919,748.998
203.9000,4.52908,753.495
203.8000,-2.88626,757.759
203.7000,-6.68603,762.046
203.6000,-6.01495,766.363
203.5000,-0.765869,770.702
203.4000,1.02498,774.75
203.3000,-2.72499,778.43
203.2000,-16.965,781.618
203.1000,-22.1718,784.958
203.0000,-13.4634,788.548
202.9000,-9.7082,791.775
202.8000,-3.98627,794.11
202.7000,-5.25556,742.485
202.6000,-8.77652,658.566
202.5000,-6.36736,568.948
202.4000,4.176,506.436
202.3000,11.0257,445.019
202.2000,10.9692,383.105
202.1000,9.73713,320.883
202.0000,6.19867,258.303
201.9000,3.709,267.398
201.8000,9.54832,357.941
201.7000,9.38274,460.045
201.6000,9.03032,542.494
201.5000,21.4153,614.265
201.4000,24.9704,685.187
201.3000,20.7988,755.74
201.2000,28.7385,826.692
201.1000,23.4287,879.154
201.0000,15.9916,878.302
200.9000,7.56308,876.081
200.8000,-6.89772,873.918
200.7000,-30.3888,872.489
200.6000,-24.5363,872.841
200.5000,-16.7951,873.454
200.4000,-30.9589,867.757
200.3000,-40.4058,864.556
200.2000,-32.8511,867.173
200.1000,-26.5026,869.608
200.0000,-23.3619,871.749
199.9000,-19.882,873.977
199.8000,-28.8565,875.641
199.7000,-37.3092,877.082
199.6000,-26.9029,881.639
199.5000,-17.0956,890.439
199.4000,-7.95581,890.191
199.3000,-10.4427,889.516
199.2000,-0.69231,889.466
199.1000,5.66296,888.974
199.0000,1.22308,887.548
198.9000,1.61311,886.55
198.8000,-0.258673,885.157
198.7000,1.78034,883.656
198.6000,3.07834,882.156
198.5000,-6.79497,879.633
198.4000,-4.97997,877.316
198.3000,-7.41096,875.022
198.2000,2.4086,873.68
198.1000,-1.78101,871.472
198.0000,-9.51954,868.579
197.9000,-13.262,865.234
197.8000,-14.6545,860.931
197.7000,-13.5276,800.893
197.6000,-12.4676,707.492
197.5000,-8.16666,608.17
197.4000,-4.92166,535.646
197.3000,-1.137,465.9
197.2000,9.37779,396.606
197.1000,13.2367,329.144
197.0000,7.3391,260.613
196.9000,0.472397,271.73
196.8000,-5.89295,370.576
196.7000,-6.21997,472.61
196.6000,-7.82162,545.615
196.5000,-16.9946,618.788
196.4000,-28.6236,691.252
196.3000,-31.3658,763.961
196.2000,-43.5316,836.273
196.1000,-48.9021,888.591
196.0000,-39.6363,880.216
195.9000,-27.4558,871.454
195.8000,-20.8826,887.283
195.7000,-13.8697,884.766
195.6000,-7.72549,882.621
195.5000,-0.453,881.248
195.4000,9.10696,879.767
195.3000,14.0285,878.147
195.2000,22.3938,876.329
195.1000,10.4117,873.313
195.0000,-3.95868,869.854
194.9000,-2.48356,867.55
194.8000,-7.84491,865.149
194.7000,-10.5051,861.723
194.6000,-7.25604,858.302
194.5000,3.52473,853.597
194.4000,1.20793,848.622
194.3000,2.93262,845.406
194.2000,14.3299,842.386
194.1000,24.1244,839.307
194.0000,36.6587,834.92
193.9000,47.6188,830.346
193.8000,47.159,825.99
193.7000,41.5367,821.746
193.6000,43.4169,793.805
193.5000,38.0506,791.909
193.4000,48.385,791.947
193.3000,39.6862,787.533
193.2000,27.8207,811.085
193.1000,20.1541,836.033
193.0000,18.7151,861.209
192.9000,14.7581,886.871
192.8000,17.8003,919.519
192.7000,16.1665,894.575
192.6000,6.64384,793.333
192.5000,-0.884787,716.465
192.4000,-1.38288,625.879
192.3000,3.41081,537.557
192.2000,5.74637,449.168
192.1000,7.88829,360.789
192.0000,0.998621,272.134
191.9000,0.32644,272.693
191.8000,-8.41697,370.864
191.7000,-11.7791,481.58
191.6000,-7.35122,575.926
191.5000,-2.82853,653.87
191.4000,7.44473,730.912
191.3000,10.989,807.417
191.2000,8.94942,883.153
191.1000,5.53847,938.973
191.0000,12.7031,933.272
190.9000,19.9411,926.882
190.8000,19.9751,921.484
190.7000,20.7906,918.676
190.6000,7.34597,917.358
190.5000,-2.3055,916.636
190.4000,0.849277,916.599
190.3000,17.5342,917.24
190.2000,17.2591,917.03
190.1000,24.3654,917.011
190.0000,38.4764,917.713

##### Extended Information
[Comments]
Sample name,DL121
Comment
User,JM
Division
Company,UT Southwestern Medical Center at Dallas

[Detailed Information]
Creation date,8/8/2022 10:55 AM

Data array type,Linear data array * 2
Horizontal axis,Wavelength [nm]
Vertical axis(1),CD [mdeg]
Vertical axis(2),HT [V]
Start,260 nm
End,190 nm
Data interval,0.1 nm
Data points,701     

[Measurement Information]
Instrument name,Jasco CD
Model name,J-815
Serial No.,B064061168

Accessory,Standard
Accessory S/N,B064061168
  Cell length,1 mm

Measurement date,8/8/2022 10:55 AM

Photometric mode,CD, HT
Measure range,260 - 190 nm
Data pitch,0.1 nm
Sensitivity,Standard
D.I.T.,1 sec
Bandwidth,1.00 nm
Start mode,Immediately
Scanning speed,50 nm/min
Baseline correction,None
Shutter control,Manual
CD detector,PMT
PMT voltage,Auto

Concentration,30 umol/L
Solvent,50mm Na2p04, 100NaF, ph6.5

