TITLE,DL121-C450S
DATA TYPE,
ORIGIN,JASCO
OWNER,
DATE,22/06/24
TIME,10:14:15
SPECTROMETER/DATA SYSTEM,
LOCALE,1033
RESOLUTION,
DELTAX,-0.1
XUNITS,NANOMETERS
YUNITS,CD [mdeg]
Y2UNITS,HT [V]
FIRSTX,  260.0000
LASTX,  190.0000
NPOINTS,     701
FIRSTY,    -1.34691
MAXY,    45.44335
MINY,   -64.88676
XYDATA
260.0000,-1.34691,275.507
259.9000,-1.32737,275.53
259.8000,-1.34372,275.562
259.7000,-1.30257,275.604
259.6000,-1.2592,275.642
259.5000,-1.18799,275.677
259.4000,-1.11597,275.71
259.3000,-1.07633,275.735
259.2000,-1.08263,275.76
259.1000,-1.0897,275.79
259.0000,-1.07027,275.824
258.9000,-1.03938,275.858
258.8000,-1.00194,275.886
258.7000,-0.998012,275.908
258.6000,-1.04808,275.934
258.5000,-1.09296,275.962
258.4000,-1.12442,275.982
258.3000,-1.12472,276.007
258.2000,-1.17414,276.034
258.1000,-1.20598,276.049
258.0000,-1.21071,276.073
257.9000,-1.23164,276.1
257.8000,-1.20167,276.121
257.7000,-1.1548,276.142
257.6000,-1.08748,276.174
257.5000,-1.0366,276.193
257.4000,-0.977846,276.214
257.3000,-0.918646,276.235
257.2000,-0.896197,276.258
257.1000,-0.873651,276.28
257.0000,-0.8928,276.294
256.9000,-0.893083,276.311
256.8000,-0.914552,276.319
256.7000,-1.01071,276.329
256.6000,-1.0295,276.352
256.5000,-1.05578,276.366
256.4000,-1.08764,276.39
256.3000,-1.14188,276.403
256.2000,-1.16281,276.425
256.1000,-1.16328,276.455
256.0000,-1.1767,276.484
255.9000,-1.2084,276.517
255.8000,-1.21501,276.536
255.7000,-1.22486,276.569
255.6000,-1.21479,276.597
255.5000,-1.22344,276.616
255.4000,-1.19746,276.647
255.3000,-1.16046,276.665
255.2000,-1.19189,276.686
255.1000,-1.15772,276.702
255.0000,-1.13232,276.724
254.9000,-1.10895,276.74
254.8000,-1.11102,276.757
254.7000,-1.08594,276.788
254.6000,-1.05925,276.811
254.5000,-1.0799,276.842
254.4000,-1.0824,276.869
254.3000,-1.07986,276.901
254.2000,-1.08979,276.929
254.1000,-1.12688,276.957
254.0000,-1.16245,276.982
253.9000,-1.11243,277.012
253.8000,-1.07826,277.041
253.7000,-1.06082,277.067
253.6000,-1.0209,277.09
253.5000,-0.983401,277.116
253.4000,-0.935588,277.143
253.3000,-0.907775,277.176
253.2000,-0.870552,277.206
253.1000,-0.94443,277.232
253.0000,-0.993835,277.254
252.9000,-1.01482,277.277
252.8000,-1.02548,277.306
252.7000,-1.059,277.34
252.6000,-1.11011,277.368
252.5000,-1.1621,277.391
252.4000,-1.1945,277.421
252.3000,-1.16583,277.452
252.2000,-1.14712,277.48
252.1000,-1.14594,277.517
252.0000,-1.126,277.547
251.9000,-1.10274,277.571
251.8000,-1.10355,277.603
251.7000,-1.10613,277.634
251.6000,-1.12431,277.663
251.5000,-1.12288,277.688
251.4000,-1.14202,277.718
251.3000,-1.202,277.741
251.2000,-1.25862,277.763
251.1000,-1.29306,277.791
251.0000,-1.32031,277.811
250.9000,-1.31684,277.833
250.8000,-1.29504,277.859
250.7000,-1.31409,277.89
250.6000,-1.33045,277.916
250.5000,-1.29252,277.94
250.4000,-1.25919,277.97
250.3000,-1.29765,277.999
250.2000,-1.34886,278.039
250.1000,-1.3344,278.081
250.0000,-1.33893,278.115
249.9000,-1.32877,278.151
249.8000,-1.29969,278.192
249.7000,-1.29736,278.235
249.6000,-1.33788,278.277
249.5000,-1.34783,278.312
249.4000,-1.30536,278.353
249.3000,-1.3027,278.392
249.2000,-1.29047,278.435
249.1000,-1.27927,278.484
249.0000,-1.25056,278.523
248.9000,-1.28734,278.56
248.8000,-1.29059,278.603
248.7000,-1.25928,278.648
248.6000,-1.24681,278.689
248.5000,-1.22666,278.731
248.4000,-1.25452,278.777
248.3000,-1.31755,278.815
248.2000,-1.3869,278.86
248.1000,-1.459,278.902
248.0000,-1.49333,278.939
247.9000,-1.53231,278.983
247.8000,-1.55908,279.029
247.7000,-1.60329,279.064
247.6000,-1.61074,279.105
247.5000,-1.62919,279.146
247.4000,-1.6445,279.185
247.3000,-1.66299,279.233
247.2000,-1.6446,279.293
247.1000,-1.64869,279.348
247.0000,-1.68228,279.401
246.9000,-1.68152,279.473
246.8000,-1.71935,279.542
246.7000,-1.75931,279.608
246.6000,-1.79068,279.686
246.5000,-1.79587,279.766
246.4000,-1.86417,279.838
246.3000,-1.94965,279.912
246.2000,-2.0159,279.987
246.1000,-2.0596,280.069
246.0000,-2.12338,280.143
245.9000,-2.11872,280.221
245.8000,-2.10239,280.294
245.7000,-2.11041,280.367
245.6000,-2.15418,280.441
245.5000,-2.13961,280.522
245.4000,-2.14618,280.598
245.3000,-2.17514,280.662
245.2000,-2.24398,280.738
245.1000,-2.3006,280.819
245.0000,-2.35719,280.899
244.9000,-2.41874,280.982
244.8000,-2.394,281.058
244.7000,-2.41443,281.141
244.6000,-2.41746,281.23
244.5000,-2.42158,281.32
244.4000,-2.3922,281.41
244.3000,-2.36331,281.502
244.2000,-2.44123,281.595
244.1000,-2.47254,281.696
244.0000,-2.51046,281.802
243.9000,-2.54901,281.904
243.8000,-2.61032,282.004
243.7000,-2.72428,282.116
243.6000,-2.86527,282.225
243.5000,-2.97401,282.332
243.4000,-3.05666,282.45
243.3000,-3.11414,282.565
243.2000,-3.21064,282.68
243.1000,-3.35772,282.796
243.0000,-3.46261,282.914
242.9000,-3.54175,283.034
242.8000,-3.59675,283.154
242.7000,-3.68395,283.28
242.6000,-3.78162,283.407
242.5000,-3.85287,283.536
242.4000,-3.96238,283.676
242.3000,-4.00416,283.82
242.2000,-4.05741,283.97
242.1000,-4.0816,284.12
242.0000,-4.10516,284.272
241.9000,-4.12641,284.432
241.8000,-4.1367,284.589
241.7000,-4.18712,284.747
241.6000,-4.24687,284.903
241.5000,-4.2913,285.066
241.4000,-4.30595,285.239
241.3000,-4.37151,285.412
241.2000,-4.51134,285.589
241.1000,-4.57518,285.775
241.0000,-4.69932,285.954
240.9000,-4.82614,286.139
240.8000,-4.93963,286.328
240.7000,-5.105,286.516
240.6000,-5.29628,286.706
240.5000,-5.44441,286.9
240.4000,-5.56808,287.099
240.3000,-5.6948,287.302
240.2000,-5.80907,287.517
240.1000,-5.90728,287.741
240.0000,-5.99047,287.973
239.9000,-6.04586,288.214
239.8000,-6.13644,288.454
239.7000,-6.26626,288.693
239.6000,-6.3469,288.943
239.5000,-6.47173,289.201
239.4000,-6.62577,289.462
239.3000,-6.75685,289.729
239.2000,-6.87354,290
239.1000,-6.98913,290.274
239.0000,-7.07975,290.552
238.9000,-7.2247,290.839
238.8000,-7.3775,291.137
238.7000,-7.5798,291.431
238.6000,-7.75899,291.729
238.5000,-7.91541,292.035
238.4000,-8.13279,292.345
238.3000,-8.37859,292.67
238.2000,-8.63214,293.005
238.1000,-8.82386,293.352
238.0000,-8.99176,293.699
237.9000,-9.211,294.047
237.8000,-9.46409,294.401
237.7000,-9.64078,294.763
237.6000,-9.79703,295.137
237.5000,-9.85978,295.517
237.4000,-10.0175,295.891
237.3000,-10.1985,296.273
237.2000,-10.4373,296.661
237.1000,-10.6132,297.06
237.0000,-10.7312,297.474
236.9000,-10.8732,297.899
236.8000,-11.1113,298.328
236.7000,-11.4046,298.764
236.6000,-11.717,299.203
236.5000,-11.9372,299.651
236.4000,-12.0839,300.117
236.3000,-12.2868,300.595
236.2000,-12.5221,301.081
236.1000,-12.7737,301.562
236.0000,-13.0076,302.055
235.9000,-13.1969,302.555
235.8000,-13.3312,303.073
235.7000,-13.517,303.594
235.6000,-13.7817,304.113
235.5000,-14.1201,304.633
235.4000,-14.348,305.165
235.3000,-14.6198,305.706
235.2000,-14.8695,306.261
235.1000,-15.0823,306.83
235.0000,-15.3238,307.399
234.9000,-15.5703,307.977
234.8000,-15.7901,308.573
234.7000,-15.9223,309.185
234.6000,-16.1608,309.802
234.5000,-16.4376,310.424
234.4000,-16.6748,311.049
234.3000,-16.9521,311.671
234.2000,-17.2305,312.307
234.1000,-17.4759,312.957
234.0000,-17.7769,313.616
233.9000,-18.1386,314.276
233.8000,-18.3673,314.95
233.7000,-18.5303,315.641
233.6000,-18.7466,316.339
233.5000,-19.0459,317.05
233.4000,-19.4348,317.763
233.3000,-19.7305,318.485
233.2000,-20.0735,319.208
233.1000,-20.2799,319.945
233.0000,-20.5253,320.689
232.9000,-20.8282,321.432
232.8000,-21.1148,322.191
232.7000,-21.4125,322.954
232.6000,-21.6647,323.72
232.5000,-21.9865,324.491
232.4000,-22.3229,325.267
232.3000,-22.7414,326.037
232.2000,-23.1491,326.811
232.1000,-23.5148,327.597
232.0000,-23.9389,328.371
231.9000,-24.2808,329.154
231.8000,-24.6159,329.95
231.7000,-24.9931,330.747
231.6000,-25.2988,331.555
231.5000,-25.528,332.372
231.4000,-25.7541,333.196
231.3000,-26.0309,334.017
231.2000,-26.2816,334.85
231.1000,-26.5326,335.69
231.0000,-26.7995,336.524
230.9000,-27.0703,337.357
230.8000,-27.3977,338.187
230.7000,-27.8191,339.011
230.6000,-28.3103,339.83
230.5000,-28.718,340.644
230.4000,-29.1655,341.443
230.3000,-29.6265,342.239
230.2000,-30.1219,343.026
230.1000,-30.4702,343.811
230.0000,-30.8569,344.584
229.9000,-31.223,345.352
229.8000,-31.5994,346.122
229.7000,-32.0101,346.899
229.6000,-32.4343,347.687
229.5000,-32.829,348.475
229.4000,-33.2575,349.268
229.3000,-33.689,350.069
229.2000,-34.1258,350.883
229.1000,-34.4478,351.711
229.0000,-34.8847,352.544
228.9000,-35.3182,353.365
228.8000,-35.778,354.186
228.7000,-36.3601,355.006
228.6000,-36.729,355.824
228.5000,-37.2068,356.637
228.4000,-37.6973,357.45
228.3000,-38.3352,358.248
228.2000,-38.851,359.038
228.1000,-39.3115,359.824
228.0000,-39.8405,360.604
227.9000,-40.2064,361.375
227.8000,-40.6809,362.14
227.7000,-41.1112,362.906
227.6000,-41.6066,363.659
227.5000,-42.193,364.403
227.4000,-42.7774,365.139
227.3000,-43.3304,365.875
227.2000,-43.8175,366.606
227.1000,-44.2792,367.328
227.0000,-44.8647,368.042
226.9000,-45.4366,368.751
226.8000,-45.9287,369.459
226.7000,-46.384,370.165
226.6000,-46.7614,370.87
226.5000,-47.2579,371.565
226.4000,-47.6747,372.26
226.3000,-48.1065,372.95
226.2000,-48.5607,373.649
226.1000,-49.04,374.342
226.0000,-49.474,375.037
225.9000,-49.8139,375.737
225.8000,-50.1057,376.425
225.7000,-50.3776,377.112
225.6000,-50.7053,377.801
225.5000,-51.0298,378.488
225.4000,-51.4509,379.16
225.3000,-51.7677,379.842
225.2000,-52.0415,380.525
225.1000,-52.4945,381.19
225.0000,-52.8771,381.859
224.9000,-53.3407,382.533
224.8000,-53.8403,383.202
224.7000,-54.2683,383.869
224.6000,-54.5342,384.547
224.5000,-54.7698,385.216
224.4000,-55.0819,385.881
224.3000,-55.5026,386.549
224.2000,-55.8892,387.226
224.1000,-56.2141,387.901
224.0000,-56.399,388.576
223.9000,-56.4969,389.258
223.8000,-56.6458,389.941
223.7000,-57.0615,390.618
223.6000,-57.4592,391.295
223.5000,-57.7755,391.972
223.4000,-57.8988,392.649
223.3000,-58.1753,393.306
223.2000,-58.3891,393.962
223.1000,-58.7311,394.614
223.0000,-59.1948,395.253
222.9000,-59.4235,395.903
222.8000,-59.7545,396.55
222.7000,-60.03,397.2
222.6000,-60.4447,397.847
222.5000,-60.6808,398.508
222.4000,-60.7578,399.181
222.3000,-61.0023,399.846
222.2000,-61.2808,400.517
222.1000,-61.5793,401.187
222.0000,-61.5933,401.864
221.9000,-61.5805,402.534
221.8000,-61.541,403.205
221.7000,-61.7072,403.869
221.6000,-61.9359,404.525
221.5000,-62.0708,405.185
221.4000,-62.1348,405.838
221.3000,-62.1607,406.5
221.2000,-62.1751,407.163
221.1000,-62.2768,407.828
221.0000,-62.5193,408.489
220.9000,-62.7065,409.146
220.8000,-62.8468,409.81
220.7000,-62.834,410.474
220.6000,-62.8151,411.146
220.5000,-62.9067,411.823
220.4000,-63.1227,412.489
220.3000,-63.2722,413.164
220.2000,-63.3685,413.834
220.1000,-63.4898,414.513
220.0000,-63.5251,415.2
219.9000,-63.742,415.888
219.8000,-64.0113,416.577
219.7000,-63.9644,417.274
219.6000,-63.8206,417.97
219.5000,-63.859,418.66
219.4000,-63.8327,419.352
219.3000,-63.9031,420.04
219.2000,-63.8747,420.73
219.1000,-63.746,421.424
219.0000,-63.8107,422.119
218.9000,-63.9359,422.811
218.8000,-64.0709,423.509
218.7000,-64.2043,424.207
218.6000,-64.3179,424.91
218.5000,-64.3459,425.614
218.4000,-64.5139,426.316
218.3000,-64.7208,427.009
218.2000,-64.8672,427.712
218.1000,-64.8868,428.422
218.0000,-64.8202,429.138
217.9000,-64.7139,429.855
217.8000,-64.7182,430.565
217.7000,-64.5971,431.289
217.6000,-64.2866,432.015
217.5000,-63.6516,432.766
217.4000,-63.1894,433.513
217.3000,-62.7742,434.26
217.2000,-62.5604,435.003
217.1000,-62.4102,435.743
217.0000,-62.1836,436.496
216.9000,-61.8064,437.265
216.8000,-61.6059,438.038
216.7000,-61.5537,438.823
216.6000,-61.7471,439.622
216.5000,-61.8642,440.417
216.4000,-61.9119,441.221
216.3000,-62.0183,442.045
216.2000,-62.2436,442.883
216.1000,-62.3811,443.735
216.0000,-62.3613,444.6
215.9000,-62.6163,445.459
215.8000,-62.8418,446.315
215.7000,-62.976,447.19
215.6000,-63.0698,448.084
215.5000,-63.1149,448.996
215.4000,-62.72,449.927
215.3000,-62.5247,450.864
215.2000,-62.4207,451.814
215.1000,-62.0569,452.793
215.0000,-61.7182,453.787
214.9000,-61.3329,454.793
214.8000,-60.8866,455.815
214.7000,-60.5064,456.851
214.6000,-60.4014,457.894
214.5000,-60.0694,458.954
214.4000,-60.0722,460.021
214.3000,-60.2668,461.091
214.2000,-60.5225,462.18
214.1000,-60.5667,463.297
214.0000,-60.5286,464.432
213.9000,-60.6788,465.574
213.8000,-60.7894,466.727
213.7000,-61.2788,467.891
213.6000,-61.4223,469.085
213.5000,-61.0624,470.326
213.4000,-60.5468,471.598
213.3000,-60.431,472.867
213.2000,-60.6233,474.158
213.1000,-60.4735,475.488
213.0000,-60.1254,476.841
212.9000,-59.6403,478.23
212.8000,-59.1792,479.643
212.7000,-59.5648,481.048
212.6000,-59.7955,482.47
212.5000,-59.969,483.93
212.4000,-59.6629,485.418
212.3000,-59.4467,486.919
212.2000,-59.3609,488.439
212.1000,-59.3049,489.985
212.0000,-59.3714,491.542
211.9000,-59.1991,493.133
211.8000,-58.8688,494.734
211.7000,-58.3415,496.359
211.6000,-58.4747,498.005
211.5000,-59.0478,499.657
211.4000,-59.4553,501.343
211.3000,-59.6233,503.063
211.2000,-59.6924,504.812
211.1000,-59.5474,506.591
211.0000,-59.5745,508.41
210.9000,-59.677,510.255
210.8000,-59.364,512.132
210.7000,-58.6289,514.06
210.6000,-57.77,516.022
210.5000,-57.081,518.016
210.4000,-56.872,520.029
210.3000,-56.3526,522.088
210.2000,-56.1143,524.161
210.1000,-56.2551,526.261
210.0000,-56.8335,528.388
209.9000,-56.777,530.565
209.8000,-56.7377,532.788
209.7000,-57.0078,535.045
209.6000,-57.065,537.34
209.5000,-57.2169,539.69
209.4000,-57.1269,542.093
209.3000,-56.8571,544.538
209.2000,-56.04,547.046
209.1000,-55.5687,549.594
209.0000,-55.8307,552.163
208.9000,-55.8173,554.786
208.8000,-55.7373,557.471
208.7000,-55.5776,560.199
208.6000,-55.6209,562.976
208.5000,-55.2243,565.831
208.4000,-55.3829,568.735
208.3000,-55.2859,571.714
208.2000,-54.3773,574.771
208.1000,-53.8086,577.87
208.0000,-53.1962,581.03
207.9000,-52.5893,584.245
207.8000,-51.9241,587.516
207.7000,-51.1124,590.836
207.6000,-50.353,594.188
207.5000,-49.2335,597.59
207.4000,-48.2292,601.033
207.3000,-47.6435,604.518
207.2000,-46.9979,608.065
207.1000,-46.6746,611.648
207.0000,-47.0414,615.262
206.9000,-48.2822,618.907
206.8000,-48.7001,622.655
206.7000,-48.5281,626.489
206.6000,-49.3513,630.345
206.5000,-49.7221,634.28
206.4000,-49.9479,638.28
206.3000,-50.6387,642.295
206.2000,-50.3888,646.387
206.1000,-50.0426,650.529
206.0000,-50.4876,654.699
205.9000,-51.4774,658.905
205.8000,-51.3546,663.213
205.7000,-49.2025,667.66
205.6000,-47.2156,672.141
205.5000,-45.378,676.688
205.4000,-43.4997,681.301
205.3000,-41.6464,685.986
205.2000,-39.5552,690.727
205.1000,-38.7783,695.483
205.0000,-38.0829,700.274
204.9000,-38.1843,705.055
204.8000,-40.2503,709.815
204.7000,-40.7011,714.679
204.6000,-41.7029,719.572
204.5000,-43.597,724.449
204.4000,-44.1168,729.397
204.3000,-41.8303,734.444
204.2000,-37.4593,739.591
204.1000,-34.5215,744.716
204.0000,-30.4412,749.915
203.9000,-29.2684,754.998
203.8000,-25.1876,760.177
203.7000,-20.8436,765.354
203.6000,-15.193,770.546
203.5000,-10.9969,775.674
203.4000,-10.7016,780.649
203.3000,-11.3155,785.534
203.2000,-12.861,790.371
203.1000,-15.8401,795.092
203.0000,-17.184,799.797
202.9000,-19.0384,804.444
202.8000,-21.111,809.03
202.7000,-26.6536,813.433
202.6000,-31.8252,817.779
202.5000,-31.3628,822.215
202.4000,-30.517,826.559
202.3000,-24.0399,830.983
202.2000,-18.4791,835.285
202.1000,-16.0599,839.408
202.0000,-16.1546,843.31
201.9000,-14.6418,847.157
201.8000,-8.4798,851.055
201.7000,0.641703,854.892
201.6000,10.1573,858.639
201.5000,17.6494,862.159
201.4000,23.2535,865.531
201.3000,22.2894,868.558
201.2000,25.2316,871.599
201.1000,23.5413,874.373
201.0000,29.8572,877.236
200.9000,32.8116,879.874
200.8000,30.0684,882.218
200.7000,31.604,884.595
200.6000,25.8913,886.583
200.5000,24.4228,888.58
200.4000,19.9851,890.402
200.3000,20.6408,892.234
200.2000,19.8191,893.956
200.1000,12.6349,895.366
200.0000,1.20103,896.617
199.9000,-6.21643,897.846
199.8000,-3.26068,899.329
199.7000,6.64026,900.938
199.6000,15.9546,891.504
199.5000,27.4982,893.519
199.4000,29.4416,896.842
199.3000,21.864,899.806
199.2000,21.4594,893.838
199.1000,28.4821,895.666
199.0000,20.1222,891.945
198.9000,5.31585,896.123
198.8000,1.14583,910.052
198.7000,-1.11628,922.878
198.6000,-20.0132,927.769
198.5000,-25.2808,932.863
198.4000,-21.1571,941.108
198.3000,-21.2751,954.36
198.2000,-21.0756,959.795
198.1000,-15.7538,969.563
198.0000,-19.3902,968.998
197.9000,-32.0101,967.899
197.8000,-29.6259,967.272
197.7000,-19.953,966.974
197.6000,-10.5612,966.606
197.5000,-9.29033,966.052
197.4000,-7.50311,965.487
197.3000,-2.24206,965.075
197.2000,-0.133067,964.521
197.1000,1.11024,964.013
197.0000,6.73313,963.688
196.9000,11.7269,963.294
196.8000,24.4144,963.193
196.7000,28.6075,962.811
196.6000,24.7183,962.248
196.5000,19.3736,961.617
196.4000,9.11283,960.858
196.3000,8.62242,960.499
196.2000,11.6966,960.132
196.1000,18.5758,959.887
196.0000,5.05346,959.006
195.9000,1.5582,958.51
195.8000,3.85961,958.209
195.7000,8.36112,958.028
195.6000,12.5108,957.838
195.5000,24.8912,957.842
195.4000,24.7799,957.425
195.3000,24.4594,957.192
195.2000,31.4645,957.165
195.1000,32.667,956.972
195.0000,36.2093,956.888
194.9000,37.069,956.61
194.8000,45.4434,956.528
194.7000,41.8892,956.236
194.6000,34.7423,955.873
194.5000,24.7685,955.405
194.4000,18.0924,954.97
194.3000,15.8203,954.785
194.2000,9.46808,954.403
194.1000,5.7104,954.173
194.0000,2.25018,953.927
193.9000,6.53529,954.059
193.8000,10.5467,954.018
193.7000,20.4961,954.183
193.6000,23.8348,954.343
193.5000,18.7551,954.108
193.4000,20.6334,954.122
193.3000,18.9401,954.064
193.2000,17.7331,954.047
193.1000,18.7874,953.981
193.0000,18.3345,953.864
192.9000,16.6716,953.815
192.8000,7.89563,950.764
192.7000,6.14371,946.891
192.6000,14.2327,948.771
192.5000,18.6589,950.506
192.4000,17.3198,952.113
192.3000,14.7178,953.797
192.2000,13.2598,955.484
192.1000,7.76763,956.933
192.0000,9.83122,958.737
191.9000,13.0457,967.242
191.8000,1.28012,967.147
191.7000,-14.1744,966.65
191.6000,-14.7103,966.532
191.5000,-12.2925,966.436
191.4000,-8.32362,966.4
191.3000,-8.16467,966.289
191.2000,-5.28181,966.23
191.1000,-3.38799,966.157
191.0000,-9.21496,965.749
190.9000,-12.9761,965.459
190.8000,-14.3145,965.208
190.7000,-12.0254,965.063
190.6000,-8.88012,964.97
190.5000,-10.1745,964.644
190.4000,-9.59381,964.417
190.3000,-10.2066,964.072
190.2000,-2.50197,963.997
190.1000,8.4476,963.979
190.0000,12.2273,963.744

##### Extended Information
[Comments]
Sample name,DL121-C450S
Comment
User
Division
Company,UT Southwestern Medical Center at Dallas

[Detailed Information]
Creation date,6/24/2022 10:14 AM

Data array type,Linear data array * 2
Horizontal axis,Wavelength [nm]
Vertical axis(1),CD [mdeg]
Vertical axis(2),HT [V]
Start,260 nm
End,190 nm
Data interval,0.1 nm
Data points,701     

[Measurement Information]
Instrument name,Jasco CD
Model name,J-815
Serial No.,B064061168

Accessory,CDF-426S
Accessory S/N,A00861183
  Temperature,15.00 C
  Control sonsor,Holder
  Monitor sensor,Holder
  Start Mode,Start immediately
  Cell length,10 mm

Measurement date,6/24/2022 10:14 AM

Photometric mode,CD, HT
Measure range,260 - 190 nm
Data pitch,0.1 nm
Sensitivity,Standard
D.I.T.,1 sec
Bandwidth,1.00 nm
Start mode,Immediately
Scanning speed,50 nm/min
Baseline correction,None
Shutter control,Manual
CD detector,PMT
PMT voltage,Auto
Accumulations,3

Concentration,0.1 (w/v)%

