TITLE,DL121_R98M
DATA TYPE,
ORIGIN,JASCO
OWNER,
DATE,24/04/10
TIME,10:42:01
SPECTROMETER/DATA SYSTEM,
LOCALE,1033
RESOLUTION,
DELTAX,-0.1
XUNITS,NANOMETERS
YUNITS,CD [mdeg]
Y2UNITS,HT [V]
FIRSTX,  250.0000
LASTX,  190.0000
NPOINTS,     601
FIRSTY,    -0.81588
MAXY,    53.99926
MINY,   -88.45662
XYDATA
250.0000,-0.815884,254.278
249.9000,-0.896887,254.302
249.8000,-0.8871,254.321
249.7000,-0.906268,254.352
249.6000,-0.907782,254.377
249.5000,-0.917895,254.387
249.4000,-0.92197,254.412
249.3000,-0.97887,254.438
249.2000,-0.98118,254.457
249.1000,-0.921167,254.493
249.0000,-0.889841,254.519
248.9000,-0.902246,254.539
248.8000,-0.936795,254.572
248.7000,-0.937909,254.604
248.6000,-0.942645,254.63
248.5000,-0.925665,254.657
248.4000,-0.894611,254.686
248.3000,-0.97724,254.707
248.2000,-1.02935,254.74
248.1000,-1.04388,254.774
248.0000,-1.06614,254.8
247.9000,-1.14208,254.839
247.8000,-1.23883,254.855
247.7000,-1.32428,254.868
247.6000,-1.40833,254.899
247.5000,-1.42693,254.931
247.4000,-1.4044,254.965
247.3000,-1.43781,254.973
247.2000,-1.44843,255.016
247.1000,-1.38863,255.042
247.0000,-1.27462,255.078
246.9000,-1.20722,255.134
246.8000,-1.18617,255.182
246.7000,-1.19317,255.217
246.6000,-1.18407,255.257
246.5000,-1.18135,255.336
246.4000,-1.15403,255.409
246.3000,-1.16596,255.477
246.2000,-1.29254,255.55
246.1000,-1.39034,255.617
246.0000,-1.43914,255.683
245.9000,-1.4785,255.753
245.8000,-1.51849,255.814
245.7000,-1.55472,255.859
245.6000,-1.62148,255.914
245.5000,-1.70935,255.965
245.4000,-1.75605,256.023
245.3000,-1.76483,256.087
245.2000,-1.83005,256.137
245.1000,-1.88701,256.203
245.0000,-1.94486,256.281
244.9000,-2.00642,256.357
244.8000,-2.07708,256.411
244.7000,-2.19257,256.486
244.6000,-2.2223,256.561
244.5000,-2.29977,256.639
244.4000,-2.37176,256.716
244.3000,-2.46943,256.786
244.2000,-2.56377,256.863
244.1000,-2.65771,256.938
244.0000,-2.74768,257.032
243.9000,-2.76231,257.126
243.8000,-2.81529,257.199
243.7000,-2.89009,257.275
243.6000,-2.92118,257.347
243.5000,-2.88239,257.443
243.4000,-2.89105,257.544
243.3000,-2.90703,257.636
243.2000,-2.84387,257.742
243.1000,-2.85518,257.829
243.0000,-2.92846,257.923
242.9000,-3.01863,258.033
242.8000,-3.04384,258.137
242.7000,-3.19091,258.24
242.6000,-3.28515,258.338
242.5000,-3.38773,258.449
242.4000,-3.51644,258.562
242.3000,-3.61808,258.682
242.2000,-3.59737,258.806
242.1000,-3.60486,258.926
242.0000,-3.6842,259.057
241.9000,-3.75806,259.19
241.8000,-3.88914,259.319
241.7000,-3.98432,259.456
241.6000,-4.02307,259.601
241.5000,-4.10158,259.732
241.4000,-4.2429,259.864
241.3000,-4.32189,260.023
241.2000,-4.47538,260.176
241.1000,-4.5973,260.339
241.0000,-4.68942,260.496
240.9000,-4.82635,260.643
240.8000,-5.01446,260.785
240.7000,-5.16779,260.948
240.6000,-5.27443,261.129
240.5000,-5.48313,261.293
240.4000,-5.67401,261.463
240.3000,-5.87709,261.625
240.2000,-6.04082,261.797
240.1000,-6.08519,261.991
240.0000,-6.0938,262.185
239.9000,-6.19791,262.389
239.8000,-6.3958,262.592
239.7000,-6.55156,262.811
239.6000,-6.68991,263.029
239.5000,-6.80974,263.26
239.4000,-6.97652,263.505
239.3000,-7.15639,263.763
239.2000,-7.30002,264.01
239.1000,-7.40083,264.265
239.0000,-7.59321,264.507
238.9000,-7.77578,264.753
238.8000,-7.89713,265.016
238.7000,-7.95383,265.274
238.6000,-8.06933,265.542
238.5000,-8.23009,265.792
238.4000,-8.46962,266.055
238.3000,-8.76479,266.329
238.2000,-8.94781,266.616
238.1000,-9.08847,266.907
238.0000,-9.26563,267.193
237.9000,-9.56237,267.488
237.8000,-9.73529,267.805
237.7000,-9.91274,268.123
237.6000,-10.1323,268.451
237.5000,-10.3626,268.796
237.4000,-10.6223,269.123
237.3000,-10.8937,269.47
237.2000,-11.1542,269.825
237.1000,-11.3945,270.175
237.0000,-11.6641,270.543
236.9000,-11.91,270.913
236.8000,-12.0418,271.284
236.7000,-12.1794,271.637
236.6000,-12.3506,272.009
236.5000,-12.5174,272.395
236.4000,-12.7383,272.79
236.3000,-12.9482,273.201
236.2000,-13.1824,273.596
236.1000,-13.3654,274.003
236.0000,-13.6146,274.44
235.9000,-13.9587,274.901
235.8000,-14.2329,275.365
235.7000,-14.4913,275.826
235.6000,-14.7572,276.294
235.5000,-15.0088,276.754
235.4000,-15.2698,277.235
235.3000,-15.5992,277.715
235.2000,-15.9432,278.197
235.1000,-16.1275,278.683
235.0000,-16.4034,279.172
234.9000,-16.688,279.672
234.8000,-16.9811,280.169
234.7000,-17.2699,280.692
234.6000,-17.534,281.212
234.5000,-17.8002,281.738
234.4000,-18.1124,282.267
234.3000,-18.5133,282.785
234.2000,-18.8445,283.325
234.1000,-19.1537,283.878
234.0000,-19.507,284.443
233.9000,-19.8251,285.003
233.8000,-20.0859,285.596
233.7000,-20.3903,286.194
233.6000,-20.5767,286.801
233.5000,-20.7962,287.426
233.4000,-21.0878,288.046
233.3000,-21.4464,288.668
233.2000,-21.7479,289.303
233.1000,-22.0601,289.941
233.0000,-22.4288,290.574
232.9000,-22.786,291.223
232.8000,-23.1955,291.873
232.7000,-23.6514,292.524
232.6000,-24.0371,293.175
232.5000,-24.2839,293.86
232.4000,-24.5243,294.537
232.3000,-24.7937,295.217
232.2000,-25.0626,295.903
232.1000,-25.3429,296.594
232.0000,-25.6692,297.287
231.9000,-25.9873,297.975
231.8000,-26.3808,298.665
231.7000,-26.8598,299.347
231.6000,-27.3548,300.019
231.5000,-27.7443,300.716
231.4000,-28.1482,301.429
231.3000,-28.6154,302.132
231.2000,-29.031,302.84
231.1000,-29.3455,303.559
231.0000,-29.6799,304.283
230.9000,-29.9214,305.016
230.8000,-30.2249,305.739
230.7000,-30.6744,306.458
230.6000,-31.1668,307.161
230.5000,-31.6029,307.86
230.4000,-31.9999,308.549
230.3000,-32.4855,309.244
230.2000,-32.9434,309.914
230.1000,-33.3952,310.573
230.0000,-33.8858,311.215
229.9000,-34.2544,311.853
229.8000,-34.675,312.478
229.7000,-35.0092,313.092
229.6000,-35.37,313.712
229.5000,-35.7952,314.347
229.4000,-36.1763,314.982
229.3000,-36.4606,315.657
229.2000,-36.7359,316.348
229.1000,-37.1766,317.053
229.0000,-37.6643,317.776
228.9000,-38.1656,318.512
228.8000,-38.6727,319.243
228.7000,-38.9541,319.965
228.6000,-39.3494,320.699
228.5000,-39.8411,321.411
228.4000,-40.3773,322.126
228.3000,-40.9168,322.82
228.2000,-41.3642,323.512
228.1000,-41.7475,324.193
228.0000,-42.2308,324.868
227.9000,-42.8128,325.542
227.8000,-43.5371,326.201
227.7000,-44.1194,326.851
227.6000,-44.526,327.489
227.5000,-44.9368,328.122
227.4000,-45.3924,328.745
227.3000,-45.8114,329.367
227.2000,-46.3887,329.987
227.1000,-46.8306,330.608
227.0000,-47.226,331.22
226.9000,-47.6588,331.83
226.8000,-48.2602,332.441
226.7000,-48.7371,333.047
226.6000,-49.2321,333.648
226.5000,-49.767,334.251
226.4000,-50.1771,334.858
226.3000,-50.549,335.481
226.2000,-51.0255,336.082
226.1000,-51.5564,336.693
226.0000,-51.8767,337.306
225.9000,-52.237,337.926
225.8000,-52.6914,338.548
225.7000,-53.0106,339.16
225.6000,-53.2168,339.76
225.5000,-53.5047,340.365
225.4000,-53.8014,340.965
225.3000,-53.9797,341.564
225.2000,-54.2866,342.148
225.1000,-54.7265,342.738
225.0000,-55.1814,343.334
224.9000,-55.5644,343.919
224.8000,-56.0882,344.52
224.7000,-56.6217,345.12
224.6000,-56.9448,345.697
224.5000,-57.3494,346.289
224.4000,-57.6693,346.891
224.3000,-58.0417,347.493
224.2000,-58.1648,348.098
224.1000,-58.1843,348.711
224.0000,-58.3894,349.317
223.9000,-58.5987,349.93
223.8000,-58.9774,350.543
223.7000,-59.1475,351.173
223.6000,-59.3688,351.802
223.5000,-59.7191,352.403
223.4000,-59.9979,353.001
223.3000,-60.4314,353.586
223.2000,-60.6175,354.194
223.1000,-60.6478,354.813
223.0000,-60.9795,355.407
222.9000,-61.4722,355.988
222.8000,-62.0981,356.563
222.7000,-62.3851,357.169
222.6000,-62.6808,357.8
222.5000,-63.0162,358.435
222.4000,-63.3792,359.064
222.3000,-63.681,359.678
222.2000,-63.7503,360.307
222.1000,-63.7415,360.949
222.0000,-63.582,361.598
221.9000,-63.5872,362.243
221.8000,-63.623,362.883
221.7000,-63.7323,363.52
221.6000,-63.8099,364.145
221.5000,-64.0101,364.776
221.4000,-64.4051,365.398
221.3000,-64.6631,366.039
221.2000,-64.9407,366.675
221.1000,-65.1134,367.307
221.0000,-65.1377,367.929
220.9000,-65.2129,368.547
220.8000,-65.235,369.179
220.7000,-65.5516,369.814
220.6000,-65.5031,370.45
220.5000,-65.3446,371.082
220.4000,-65.2189,371.722
220.3000,-64.9022,372.358
220.2000,-64.8128,373.013
220.1000,-64.8609,373.652
220.0000,-65.0054,374.284
219.9000,-64.9965,374.919
219.8000,-64.9458,375.572
219.7000,-64.9709,376.218
219.6000,-65.1616,376.85
219.5000,-65.2062,377.499
219.4000,-65.4315,378.158
219.3000,-65.4764,378.833
219.2000,-65.6688,379.516
219.1000,-65.8095,380.188
219.0000,-65.9887,380.866
218.9000,-66.1349,381.542
218.8000,-66.0941,382.222
218.7000,-66.2515,382.894
218.6000,-66.5551,383.554
218.5000,-66.6373,384.214
218.4000,-66.5787,384.873
218.3000,-66.3549,385.548
218.2000,-66.1625,386.236
218.1000,-66.1425,386.91
218.0000,-66.178,387.607
217.9000,-66.3852,388.301
217.8000,-66.2035,389.021
217.7000,-65.9969,389.743
217.6000,-65.8244,390.456
217.5000,-65.5824,391.192
217.4000,-65.4657,391.92
217.3000,-65.575,392.638
217.2000,-65.5513,393.375
217.1000,-65.3594,394.112
217.0000,-65.3991,394.85
216.9000,-65.6204,395.59
216.8000,-66.0226,396.338
216.7000,-66.1521,397.083
216.6000,-66.4377,397.831
216.5000,-66.1376,398.629
216.4000,-65.8053,399.443
216.3000,-65.4815,400.262
216.2000,-65.1388,401.072
216.1000,-64.6871,401.901
216.0000,-64.1731,402.733
215.9000,-63.9408,403.58
215.8000,-63.8719,404.425
215.7000,-64.1173,405.274
215.6000,-64.6075,406.137
215.5000,-64.9743,407.012
215.4000,-65.0753,407.908
215.3000,-65.3589,408.807
215.2000,-65.17,409.753
215.1000,-64.6027,410.729
215.0000,-64.284,411.701
214.9000,-63.9296,412.671
214.8000,-63.3614,413.642
214.7000,-62.7638,414.63
214.6000,-62.4166,415.639
214.5000,-61.9286,416.676
214.4000,-61.9448,417.685
214.3000,-61.9382,418.719
214.2000,-61.7619,419.784
214.1000,-61.4982,420.879
214.0000,-61.3609,421.98
213.9000,-61.5157,423.095
213.8000,-61.5918,424.236
213.7000,-61.4846,425.385
213.6000,-61.2727,426.595
213.5000,-61.3053,427.798
213.4000,-61.3752,429
213.3000,-61.7342,430.198
213.2000,-61.9608,431.443
213.1000,-61.6901,432.73
213.0000,-61.4702,434.016
212.9000,-61.2871,435.321
212.8000,-61.3342,436.619
212.7000,-61.4968,437.932
212.6000,-61.8123,439.3
212.5000,-62.0118,440.678
212.4000,-61.6469,442.111
212.3000,-61.1978,443.57
212.2000,-60.7667,445.044
212.1000,-60.515,446.53
212.0000,-60.2909,448.058
211.9000,-59.8299,449.632
211.8000,-59.3931,451.201
211.7000,-58.9402,452.797
211.6000,-59.3704,454.387
211.5000,-60.0926,455.976
211.4000,-60.9841,457.585
211.3000,-61.5549,459.245
211.2000,-61.9735,460.932
211.1000,-62.2685,462.64
211.0000,-62.5311,464.374
210.9000,-62.7759,466.13
210.8000,-62.7844,467.922
210.7000,-62.5187,469.757
210.6000,-62.2047,471.627
210.5000,-62.1394,473.506
210.4000,-61.9421,475.414
210.3000,-61.8765,477.37
210.2000,-61.737,479.332
210.1000,-61.2252,481.366
210.0000,-60.6491,483.436
209.9000,-60.1059,485.567
209.8000,-59.8551,487.728
209.7000,-60.1381,489.905
209.6000,-60.0951,492.138
209.5000,-59.7272,494.422
209.4000,-59.603,496.766
209.3000,-59.4338,499.144
209.2000,-59.7567,501.575
209.1000,-60.1959,504.021
209.0000,-60.4642,506.499
208.9000,-60.1293,509.059
208.8000,-59.1788,511.702
208.7000,-59.1475,514.367
208.6000,-59.7799,517.053
208.5000,-60.7451,519.794
208.4000,-61.1377,522.608
208.3000,-61.1004,525.487
208.2000,-59.7203,528.49
208.1000,-59.0101,531.509
208.0000,-58.8606,534.555
207.9000,-58.595,537.662
207.8000,-58.081,540.833
207.7000,-57.7181,544.051
207.6000,-56.492,547.344
207.5000,-55.6441,550.677
207.4000,-56.1161,554.022
207.3000,-57.0206,557.411
207.2000,-57.4834,560.875
207.1000,-59.132,564.372
207.0000,-59.4412,567.982
206.9000,-58.1718,571.69
206.8000,-57.7521,575.445
206.7000,-57.3828,579.239
206.6000,-57.6527,583.089
206.5000,-57.18,587.013
206.4000,-55.8165,591.047
206.3000,-53.9039,595.153
206.2000,-52.2755,599.281
206.1000,-52.1949,603.423
206.0000,-51.8372,607.639
205.9000,-51.4615,611.952
205.8000,-48.3543,616.43
205.7000,-47.0307,620.954
205.6000,-46.5293,625.524
205.5000,-46.677,630.129
205.4000,-45.9773,634.837
205.3000,-44.0332,639.666
205.2000,-41.438,644.602
205.1000,-40.9824,649.542
205.0000,-40.6413,654.511
204.9000,-38.3672,659.589
204.8000,-37.1738,664.693
204.7000,-36.6189,669.852
204.6000,-35.4972,675.074
204.5000,-35.9504,680.297
204.4000,-35.5744,685.58
204.3000,-35.3736,690.893
204.2000,-33.7255,696.344
204.1000,-33.6189,701.764
204.0000,-33.451,707.204
203.9000,-32.6482,712.667
203.8000,-30.596,718.21
203.7000,-28.6726,723.798
203.6000,-25.1216,729.466
203.5000,-24.9505,735.012
203.4000,-27.1453,740.482
203.3000,-25.9216,746.077
203.2000,-21.5747,751.756
203.1000,-19.2327,757.38
203.0000,-19.5906,762.92
202.9000,-18.8523,768.416
202.8000,-16.8207,773.966
202.7000,-18.2522,779.337
202.6000,-18.4841,784.716
202.5000,-22.9991,789.885
202.4000,-33.3916,794.812
202.3000,-38.1268,799.821
202.2000,-41.5329,804.8
202.1000,-42.8781,809.793
202.0000,-47.6879,814.542
201.9000,-52.2307,819.173
201.8000,-43.1713,824.184
201.7000,-32.253,829.092
201.6000,-17.1136,834.017
201.5000,-6.81349,838.66
201.4000,0.593262,843.118
201.3000,3.91714,847.25
201.2000,13.186,851.446
201.1000,27.1257,855.677
201.0000,18.8364,858.972
200.9000,11.4928,862.181
200.8000,6.59332,865.344
200.7000,4.93654,868.478
200.6000,6.23185,871.493
200.5000,10.8884,874.555
200.4000,3.87682,877.035
200.3000,-0.362198,879.394
200.2000,11.8143,882.187
200.1000,11.3014,884.439
200.0000,14.4283,886.621
199.9000,23.1892,888.823
199.8000,32.5495,890.98
199.7000,29.9196,892.615
199.6000,28.7553,894.222
199.5000,13.8217,895.26
199.4000,0.0947876,896.275
199.3000,-4.99191,897.456
199.2000,-3.50088,898.731
199.1000,-25.2139,899.254
199.0000,-53.7597,899.451
198.9000,-74.88,899.809
198.8000,-82.172,900.443
198.7000,-83.8609,901.329
198.6000,-86.6353,902.11
198.5000,-87.6453,902.861
198.4000,-88.4566,903.568
198.3000,-78.856,904.56
198.2000,-63.3522,905.703
198.1000,-43.4234,906.941
198.0000,-24.7385,908.192
197.9000,-16.2207,909.025
197.8000,-3.59603,909.918
197.7000,-7.1559,910.285
197.6000,-20.4191,910.375
197.5000,-35.1171,910.394
197.4000,-40.1549,910.775
197.3000,-26.958,911.638
197.2000,-37.6131,911.576
197.1000,-45.1495,911.672
197.0000,-36.7548,912.293
196.9000,-25.1646,913.064
196.8000,-30.0699,913.087
196.7000,-15.3323,913.872
196.6000,-13.0381,914.227
196.5000,-27.3422,914.096
196.4000,-43.6422,913.962
196.3000,-38.517,898.456
196.2000,-35.0657,883.426
196.1000,-34.1231,890.953
196.0000,-13.8112,899.213
195.9000,-3.36846,907.022
195.8000,4.31146,914.435
195.7000,19.2442,921.874
195.6000,29.8899,928.961
195.5000,42.276,938.33
195.4000,53.9993,975.791
195.3000,48.2167,975.361
195.2000,40.3247,973.881
195.1000,24.891,972.145
195.0000,31.7209,971.111
194.9000,27.487,969.778
194.8000,20.2708,968.401
194.7000,12.3862,967.222
194.6000,1.63841,965.913
194.5000,2.53984,965.07
194.4000,17.8425,964.622
194.3000,33.4615,964.207
194.2000,13.5285,962.757
194.1000,5.34592,961.721
194.0000,11.5003,961.123
193.9000,6.16931,960.078
193.8000,0.1728,959.14
193.7000,-6.56764,958.217
193.6000,-17.9202,957.196
193.5000,-36.603,955.969
193.4000,-36.5546,955.279
193.3000,-17.4058,955.308
193.2000,-15.144,954.797
193.1000,-6.04993,954.414
193.0000,1.4509,953.932
192.9000,-6.23699,953.075
192.8000,-13.215,952.306
192.7000,-17.449,951.616
192.6000,-22.0848,950.909
192.5000,-31.3281,950.022
192.4000,-50.0155,948.919
192.3000,-57.2312,948.238
192.2000,-65.3551,947.755
192.1000,-61.4184,947.45
192.0000,-65.5045,946.916
191.9000,-71.9135,946.386
191.8000,-57.0951,946.676
191.7000,-58.3188,946.395
191.6000,-61.5757,946.042
191.5000,-71.7113,945.543
191.4000,-63.5825,945.56
191.3000,-55.6494,945.562
191.2000,-46.3985,945.771
191.1000,-28.6479,946.254
191.0000,-19.9023,946.276
190.9000,-6.20429,946.655
190.8000,0.923126,946.827
190.7000,5.12723,946.777
190.6000,13.2417,947.042
190.5000,14.0095,947.058
190.4000,0.567569,946.633
190.3000,-6.20977,946.421
190.2000,2.94915,946.755
190.1000,8.639,946.914
190.0000,4.14682,946.778

##### Extended Information
[Comments]
Sample name,DL121_R98M
Comment
User
Division
Company,UT Southwestern Medical Center at Dallas

[Detailed Information]
Creation date,4/10/2024 10:42 AM

Data array type,Linear data array * 2
Horizontal axis,Wavelength [nm]
Vertical axis(1),CD [mdeg]
Vertical axis(2),HT [V]
Start,250 nm
End,190 nm
Data interval,0.1 nm
Data points,601     

[Measurement Information]
Instrument name,Jasco CD
Model name,J-815
Serial No.,B064061168

Accessory,CDF-426S
Accessory S/N,A00861183
  Temperature,19.99 C
  Control sonsor,Holder
  Monitor sensor,Holder
  Start Mode,Start immediately
  Cell length,10 mm

Measurement date,4/10/2024 10:42 AM

Photometric mode,CD, HT
Measure range,250 - 190 nm
Data pitch,0.1 nm
Sensitivity,Standard
D.I.T.,1 sec
Bandwidth,1.00 nm
Start mode,Immediately
Scanning speed,50 nm/min
Baseline correction,None
Shutter control,Manual
CD detector,PMT
PMT voltage,Auto

Concentration,0.88 (w/v)%
Solvent,50mm sodium phosphate ph 6.5 100mM naf12.5mM IV

